 Time (ps)Ekin (1e12erg)Epot (1e12erg)E (1e12erg)T (K)
   0.00000000       16.8911819      -69.0183182      -52.1271362       94.3999405    
  0.100000001       19.8772507      -72.0378876      -52.1606369       111.088219    
  0.200000003       19.6801090      -71.8401871      -52.1600800       109.986450    
  0.300000012       19.9725418      -72.1272202      -52.1546745       111.620781    
  0.400000006       19.3124866      -71.4677124      -52.1552238       107.931923    
  0.499999970       19.8894577      -72.0538559      -52.1643982       111.156448    
  0.600000024       20.0655060      -72.2297440      -52.1642380       112.140327    
  0.699999988       20.1916046      -72.3575897      -52.1659851       112.845055    
  0.800000012       19.6557598      -71.8233109      -52.1675529       109.850372    
  0.899999976       20.4554672      -72.6413956      -52.1859245       114.319702    
  0.999999940       20.2183208      -72.3690872      -52.1507683       112.994362    
   1.10000002       19.7321072      -71.8929825      -52.1608810       110.277054    
   1.20000005       20.4310074      -72.6000137      -52.1690102       114.183006    
   1.29999995       20.1549034      -72.3258820      -52.1709747       112.639946    
   1.39999998       20.1574497      -72.3019485      -52.1444969       112.654175    
   1.49999988       19.6365356      -71.7620163      -52.1254845       109.742935    
   1.60000002       20.2004833      -72.3431702      -52.1426888       112.894676    
   1.69999993       19.4075661      -71.5511703      -52.1436005       108.463287    
   1.79999995       19.6839142      -71.8501740      -52.1662560       110.007721    
   1.89999998       19.9481716      -72.1142654      -52.1660957       111.484573    
   1.99999988       19.7890434      -71.9775543      -52.1885109       110.595261    
   2.09999990       20.5379372      -72.7236710      -52.1857338       114.780609    
   2.20000005       20.2213364      -72.4192200      -52.1978760       113.011215    
   2.29999995       20.3369408      -72.5194168      -52.1824722       113.657295    
   2.40000010       20.0819664      -72.2639160      -52.1819534       112.232315    
   2.50000000       19.4194775      -71.6022644      -52.1827850       108.529861    
   2.59999990       20.1996517      -72.3646927      -52.1650352       112.890030    
   2.69999981       20.0401249      -72.1982422      -52.1581192       111.998474    
   2.79999995       19.7832088      -71.9548645      -52.1716576       110.562645    
   2.90000010       20.2775459      -72.4491959      -52.1716576       113.325348    
   2.99999976       20.4174290      -72.5918350      -52.1744080       114.107117    
   3.09999990       20.1607475      -72.3314896      -52.1707382       112.672607    
   3.20000005       20.9862995      -73.1620407      -52.1757393       117.286377    
   3.29999995       20.4286442      -72.5918121      -52.1631699       114.169807    
   3.39999986       20.2197762      -72.3912354      -52.1714554       113.002495    
   3.50000000       20.3242130      -72.4928970      -52.1686859       113.586166    
   3.59999990       19.4889603      -71.6471405      -52.1581802       108.918182    
   3.70000005       19.9324226      -72.1095963      -52.1771736       111.396561    
   3.79999995       20.1004086      -72.2692490      -52.1688385       112.335388    
   3.89999986       20.0000000      -72.1714172      -52.1714134       111.774231    
   3.99999976       20.7374687      -72.9274673      -52.1900024       115.895737    
   4.09999990       21.1030540      -73.2945633      -52.1915092       117.938889    
   4.19999981       20.2723160      -72.4597092      -52.1873932       113.296135    
   4.29999971       19.7980537      -71.9687347      -52.1706848       110.645615    
   4.40000010       20.4757366      -72.6674118      -52.1916733       114.432991    
   4.50000000       20.6250496      -72.8343277      -52.2092781       115.267456    
   4.59999990       20.4796848      -72.6526718      -52.1729889       114.455055    
   4.69999981       20.4132805      -72.5876617      -52.1743813       114.083939    
   4.80000019       20.4554539      -72.6512604      -52.1958046       114.319626    
   4.90000010       21.0454712      -73.2416916      -52.1962204       117.617065    
   5.00000000       20.3531456      -72.5537796      -52.2006378       113.747864    
   5.10000038       20.2296295      -72.4105072      -52.1808777       113.057556    
   5.19999981       20.0784779      -72.2345352      -52.1560593       112.212814    
   5.29999971       20.0847015      -72.2530212      -52.1683197       112.247604    
   5.39999962       19.6998062      -71.8431549      -52.1433525       110.096535    
   5.50000000       19.5993671      -71.7617798      -52.1624107       109.535210    
   5.59999990       19.9764709      -72.1607437      -52.1842690       111.642738    
   5.69999981       20.2171841      -72.4060593      -52.1888771       112.988007    
   5.80000019       19.8640747      -72.0469131      -52.1828346       111.014587    
   5.90000010       20.0655708      -72.2069321      -52.1413651       112.140686    
   5.99999952       19.8382130      -72.0013809      -52.1631699       110.870049    
   6.10000038       20.0119953      -72.1775742      -52.1655807       111.841270    
   6.19999981       20.3231983      -72.4869156      -52.1637192       113.580490    
   6.30000019       19.8566189      -72.0106125      -52.1539955       110.972908    
   6.40000010       20.3652992      -72.5425415      -52.1772423       113.815788    
   6.49999952       19.7623329      -71.9318924      -52.1695595       110.445976    
   6.59999990       19.9433079      -72.1015854      -52.1582794       111.457390    
   6.70000029       20.1348610      -72.3052673      -52.1704063       112.527931    
   6.79999971       20.1086292      -72.2867889      -52.1781578       112.381332    
   6.90000010       20.0972366      -72.2668762      -52.1696358       112.317657    
   7.00000000       20.2121048      -72.3501740      -52.1380730       112.959625    
   7.09999990       19.8439808      -71.9720383      -52.1280594       110.902283    
   7.19999981       20.0631809      -72.2249374      -52.1617622       112.127327    
   7.29999971       19.5442638      -71.6858673      -52.1416016       109.227249    
   7.40000010       20.4133606      -72.5758591      -52.1625023       114.084381    
   7.50000000       19.9249973      -72.0773087      -52.1523094       111.355064    
   7.59999990       20.2997837      -72.4984283      -52.1986465       113.449638    
   7.69999981       20.0029850      -72.1662903      -52.1632996       111.790916    
   7.79999971       20.5835228      -72.7549667      -52.1714478       115.035370    
   7.90000010       20.3157482      -72.4834595      -52.1677055       113.538864    
   7.99999952       19.9716606      -72.1381760      -52.1665154       111.615852    
   8.09999943       20.1086502      -72.2733002      -52.1646461       112.381447    
   8.19999981       19.9603558      -72.1093369      -52.1489830       111.552673    
   8.30000019       19.9922104      -72.1213379      -52.1291275       111.730698    
   8.39999962       19.8554420      -71.9747391      -52.1192932       110.966339    
   8.50000000       19.8850613      -72.0290070      -52.1439476       111.131866    
   8.59999943       20.1880322      -72.3387909      -52.1507645       112.825089    
   8.70000076       19.8912563      -72.0520630      -52.1608086       111.166496    
   8.80000019       19.7819462      -71.9300003      -52.1480560       110.555595    
   8.89999962       20.5602646      -72.7191315      -52.1588631       114.905396    
   9.00000000       20.1540623      -72.3289413      -52.1748772       112.635239    
   9.09999943       20.0726547      -72.2629929      -52.1903381       112.180283    
   9.19999981       20.1117363      -72.2833328      -52.1715927       112.398697    
   9.29999924       20.2075920      -72.3818817      -52.1742859       112.934402    
   9.39999962       20.0398197      -72.2056580      -52.1658363       111.996773    
   9.49999905       20.2923298      -72.4749527      -52.1826248       113.407982    
   9.60000038       20.5041828      -72.6887054      -52.1845207       114.591965    
   9.70000076       20.4529247      -72.6283264      -52.1754036       114.305496    
   9.80000019       20.4260864      -72.5786209      -52.1525383       114.155502    
   9.90000057       19.9463844      -72.0996628      -52.1532745       111.474594    
   10.0000000       20.6966343      -72.8566818      -52.1600456       115.667519    
   10.1000004       20.2946415      -72.4636230      -52.1689835       113.420891    
   10.2000008       20.4062233      -72.5619507      -52.1557236       114.044495    
   10.2999992       19.8881321      -72.0399857      -52.1518517       111.149040    
   10.3999996       19.6921940      -71.8461380      -52.1539459       110.053993    
   10.4999990       20.1523991      -72.3293610      -52.1769638       112.625946    
   10.5999994       20.1110954      -72.2633209      -52.1522255       112.395111    
   10.6999998       20.0659485      -72.2298203      -52.1638718       112.142799    
   10.7999992       20.5119133      -72.6794739      -52.1675606       114.635170    
   10.9000006       19.8761902      -72.0392456      -52.1630592       111.082298    
   11.0000000       20.2365532      -72.3827667      -52.1462097       113.096260    
   11.0999994       19.7619591      -71.9182587      -52.1562958       110.443893    
   11.1999998       19.6982174      -71.8452759      -52.1470566       110.087654    
   11.2999992       19.9466267      -72.0897903      -52.1431656       111.475937    
   11.3999996       19.3984890      -71.5170593      -52.1185646       108.412567    
   11.5000000       19.8625984      -72.0045700      -52.1419716       111.006340    
   11.6000004       20.0814495      -72.2247543      -52.1433029       112.229431    
   11.7000008       19.7727394      -71.9191513      -52.1464119       110.504135    
   11.8000002       20.4765434      -72.6226730      -52.1461258       114.437500    
   11.8999987       19.7145653      -71.8531952      -52.1386337       110.179016    
   11.9999990       19.2641487      -71.3933945      -52.1292496       107.661774    
   12.0999994       20.1540508      -72.3094254      -52.1553764       112.635178    
   12.2000008       19.3442402      -71.4916077      -52.1473618       108.109375    
   12.3000011       20.3858757      -72.5445023      -52.1586304       113.930779    
   12.3999996       19.9770031      -72.1211472      -52.1441460       111.645706    
   12.5000000       19.9049053      -72.0669022      -52.1619949       111.242775    
   12.6000004       20.0701427      -72.2157440      -52.1456032       112.166245    
   12.6999998       20.4332886      -72.6029816      -52.1696930       114.195755    
   12.8000002       20.3188038      -72.4968796      -52.1780739       113.555931    
   12.8999987       20.0752888      -72.2627945      -52.1875038       112.195000    
   12.9999990       19.7334328      -71.9073486      -52.1739159       110.284470    
   13.0999994       20.0781269      -72.2688751      -52.1907501       112.210861    
   13.1999998       20.2611904      -72.4487839      -52.1875954       113.233948    
   13.3000002       20.9115734      -73.0840912      -52.1725235       116.868752    
   13.4000006       20.5010548      -72.6618805      -52.1608315       114.574478    
   13.4999990       20.1072979      -72.2770615      -52.1697617       112.373886    
   13.5999994       19.4838142      -71.6771240      -52.1933098       108.889420    
   13.6999998       19.8427429      -72.0465317      -52.2037811       110.895370    
   13.8000002       20.3413811      -72.5498428      -52.2084579       113.682114    
   13.9000006       19.7346897      -71.9496765      -52.2149849       110.291489    
   14.0000000       20.2965984      -72.5179367      -52.2213364       113.431831    
   14.0999994       20.4013939      -72.6066818      -52.2052879       114.017509    
   14.1999998       19.8372593      -72.0203705      -52.1831093       110.864723    
   14.3000002       20.3574543      -72.5379486      -52.1804924       113.771942    
   14.3999996       20.2944145      -72.4594803      -52.1650658       113.419632    
   14.4999990       20.2490063      -72.4117966      -52.1627960       113.165855    
   14.5999994       19.7844410      -71.9655685      -52.1811256       110.569534    
   14.6999989       20.2470913      -72.4387741      -52.1916885       113.155151    
   14.8000002       20.2692909      -72.4592209      -52.1899261       113.279221    
   14.9000006       19.7818832      -71.9816437      -52.1997566       110.555237    
   15.0000000       19.9418697      -72.1405563      -52.1986885       111.449356    
   15.0999994       20.0845757      -72.2601318      -52.1755600       112.246902    
   15.1999998       19.7218685      -71.9182892      -52.1964188       110.219833    
   15.2999992       20.7669029      -72.9696884      -52.2027817       116.060234    
   15.3999996       19.9859219      -72.2003403      -52.2144203       111.695557    
   15.5000000       20.4059772      -72.6111679      -52.2051926       114.043121    
   15.5999994       20.0141563      -72.2193985      -52.2052383       111.853348    
   15.6999998       20.1962605      -72.4070740      -52.2108116       112.871071    
   15.8000002       20.4565029      -72.6494522      -52.1929512       114.325493    
   15.9000006       19.6264553      -71.8118668      -52.1854172       109.686592    
   15.9999990       20.1954441      -72.3540726      -52.1586304       112.866516    
   16.1000004       19.5027447      -71.6879578      -52.1852150       108.995216    
   16.1999989       20.3117199      -72.5078049      -52.1960869       113.516342    
   16.2999992       20.6509647      -72.8440170      -52.1930466       115.412285    
   16.3999996       19.7223892      -71.8694077      -52.1470146       110.222740    
   16.5000000       20.3629971      -72.4912033      -52.1282043       113.802917    
   16.6000004       20.1555748      -72.2821732      -52.1265984       112.643692    
   16.7000008       19.7977581      -71.9483719      -52.1506119       110.643967    
   16.7999992       20.1336308      -72.2965546      -52.1629257       112.521057    
   16.8999996       19.7538795      -71.8957901      -52.1419067       110.398735    
   17.0000000       19.8969498      -72.0423431      -52.1453934       111.198318    
   17.0999985       19.9467182      -72.1030884      -52.1563683       111.476456    
   17.1999989       19.5074005      -71.6920776      -52.1846733       109.021240    
   17.3000011       19.9764996      -72.1479416      -52.1714401       111.642891    
   17.4000015       20.3528862      -72.5133972      -52.1605110       113.746407    
   17.5000000       20.7262249      -72.8851318      -52.1589012       115.832893    
   17.6000004       20.2082596      -72.3701019      -52.1618423       112.938141    
   17.6999989       20.4688263      -72.6380920      -52.1692619       114.394363    
   17.7999992       20.0649567      -72.2298889      -52.1649323       112.137253    
   17.8999996       19.9855938      -72.1595612      -52.1739693       111.693718    
   18.0000000       20.1368999      -72.3306351      -52.1937370       112.539322    
   18.1000004       20.3190346      -72.5117874      -52.1927528       113.557220    
   18.1999989       19.8823299      -72.0608292      -52.1784973       111.116608    
   18.3000011       20.0330601      -72.2078934      -52.1748352       111.958992    
   18.3999996       20.6584721      -72.8156815      -52.1572113       115.454239    
   18.5000000       20.1962547      -72.3725891      -52.1763344       112.871040    
   18.5999985       20.7050705      -72.8863678      -52.1813011       115.714668    
   18.6999989       19.6676788      -71.8234711      -52.1557922       109.916985    
   18.7999992       20.2371922      -72.4066696      -52.1694756       113.099831    
   18.8999996       19.7063293      -71.8609161      -52.1545830       110.132996    
   18.9999981       20.2802372      -72.4156723      -52.1354332       113.340401    
   19.0999985       20.5120010      -72.6371536      -52.1251526       114.635658    
   19.2000008       19.6884880      -71.8287964      -52.1403046       110.033287    
   19.3000011       20.2811165      -72.4424515      -52.1613388       113.345314    
   19.4000015       20.2099590      -72.3655167      -52.1555557       112.947632    
   19.5000019       19.8206654      -71.9694519      -52.1487846       110.771988    
   19.6000004       20.0565300      -72.2106247      -52.1540985       112.090157    
   19.7000008       20.0751228      -72.2262650      -52.1511459       112.194077    
   19.8000011       20.2450809      -72.3988571      -52.1537743       113.143921    
   19.8999996       20.4166412      -72.5916901      -52.1750488       114.102715    
   20.0000000       19.4622211      -71.6232681      -52.1610451       108.768745    
   20.0999985       19.5644608      -71.7096100      -52.1451492       109.340134    
   20.2000008       19.3271675      -71.4822540      -52.1550903       108.013969    
   20.2999992       19.6984520      -71.8362503      -52.1378021       110.088959    
   20.4000015       20.0189457      -72.1427002      -52.1237564       111.880112    
   20.5000000       20.7968273      -72.9362717      -52.1394463       116.227470    
   20.5999985       19.8731899      -72.0272598      -52.1540680       111.065529    
   20.7000008       19.6928463      -71.8519211      -52.1590767       110.057640    
   20.7999992       19.9385967      -72.0988007      -52.1601982       111.431068    
   20.9000015       20.1044960      -72.2236404      -52.1191483       112.358231    
   20.9999981       19.9923573      -72.1053543      -52.1130028       111.731514    
   21.0999985       20.1793747      -72.3020706      -52.1226921       112.776711    
   21.1999989       20.7560596      -72.8925171      -52.1364594       115.999634    
   21.2999973       19.9875698      -72.1332397      -52.1456642       111.704765    
   21.3999996       19.7582302      -71.8964767      -52.1382446       110.423050    
   21.4999981       20.5254631      -72.6545639      -52.1291008       114.710892    
   21.5999985       19.9573441      -72.0789185      -52.1215744       111.535843    
   21.6999989       19.8699608      -72.0072937      -52.1373367       111.047485    
   21.8000011       20.0569458      -72.2295074      -52.1725616       112.092484    
   21.9000015       20.3501949      -72.5361176      -52.1859207       113.731369    
   22.0000000       20.2408237      -72.4107437      -52.1699219       113.120117    
   22.1000004       19.8723869      -72.0388336      -52.1664429       111.061035    
   22.1999989       20.2292461      -72.3883896      -52.1591415       113.055420    
   22.2999992       19.7761555      -71.9294128      -52.1532555       110.523232    
   22.3999996       20.5753460      -72.7277527      -52.1524086       114.989670    
   22.5000000       19.8408794      -72.0015793      -52.1606979       110.884949    
   22.5999985       19.9939785      -72.1604691      -52.1664925       111.740578    
   22.7000008       19.9352360      -72.0800552      -52.1448212       111.412285    
   22.7999992       19.7460537      -71.8807983      -52.1347466       110.354996    
   22.8999996       20.2192593      -72.3427658      -52.1235046       112.999611    
   23.0000000       20.1254044      -72.2875977      -52.1621933       112.475082    
   23.1000004       19.5509281      -71.7116852      -52.1607552       109.264503    
   23.2000008       20.2910023      -72.4392471      -52.1482468       113.400558    
   23.2999973       20.7624645      -72.9310150      -52.1685524       116.035423    
   23.4000015       19.8594856      -72.0272141      -52.1677246       110.988937    
   23.4999981       19.9970875      -72.1660461      -52.1689568       111.757950    
   23.6000004       19.8528080      -72.0199661      -52.1671600       110.951622    
   23.6999989       20.0095081      -72.1633072      -52.1538010       111.827370    
   23.7999973       19.8281746      -71.9685593      -52.1403885       110.813957    
   23.8999996       20.1898956      -72.3341675      -52.1442680       112.835510    
   23.9999981       19.8053665      -71.9452133      -52.1398468       110.686485    
   24.1000004       20.1446228      -72.2827301      -52.1381073       112.582489    
   24.1999989       20.0591869      -72.2249298      -52.1657410       112.105011    
   24.2999992       20.6583977      -72.8083267      -52.1499290       115.453835    
   24.4000015       20.0335312      -72.1823502      -52.1488190       111.961624    
   24.5000000       19.5189304      -71.6533813      -52.1344566       109.085670    
   24.6000023       20.1777401      -72.3209000      -52.1431580       112.767570    
   24.6999989       19.6843567      -71.8697510      -52.1853943       110.010193    
   24.7999992       20.2400970      -72.4215164      -52.1814156       113.116066    
   24.8999996       20.8882504      -73.0865631      -52.1983147       116.738411    
   25.0000000       19.8876553      -72.0518265      -52.1641769       111.146370    
   25.1000004       20.3849602      -72.5571823      -52.1722221       113.925667    
   25.2000008       20.3275433      -72.5180817      -52.1905365       113.604774    
   25.2999992       20.0328712      -72.2024765      -52.1696091       111.957939    
   25.3999996       20.2221889      -72.3808517      -52.1586609       113.015976    
   25.5000000       20.4949055      -72.6442566      -52.1493530       114.540115    
   25.6000004       19.8038673      -71.9662704      -52.1624069       110.678101    
   25.7000008       19.8046608      -71.9486923      -52.1440277       110.682541    
   25.7999973       19.7933140      -71.9449387      -52.1516228       110.619125    
   25.8999996       20.4449978      -72.6194458      -52.1744461       114.261200    
   25.9999981       19.5519924      -71.6983795      -52.1463928       109.270447    
   26.1000004       19.5398197      -71.6827621      -52.1429443       109.202415    
   26.1999989       20.2743530      -72.4161606      -52.1418114       113.307510    
   26.2999973       19.8972855      -72.0634537      -52.1661682       111.200188    
   26.3999996       19.6311512      -71.7767944      -52.1456413       109.712837    
   26.4999981       20.0827694      -72.2211456      -52.1383781       112.236801    
   26.6000004       20.1610184      -72.2973785      -52.1363564       112.674118    
   26.6999989       19.8213291      -71.9807587      -52.1594315       110.775688    
   26.8000011       19.8274364      -71.9868011      -52.1593590       110.809822    
   26.9000015       20.7620068      -72.9356613      -52.1736565       116.032867    
   26.9999981       20.7770538      -72.9235382      -52.1464806       116.116959    
   27.1000004       20.1421661      -72.2864075      -52.1442413       112.568756    
   27.1999989       19.8553123      -72.0045395      -52.1492310       110.965614    
   27.3000011       20.2125530      -72.3517151      -52.1391602       112.962135    
   27.3999996       20.2963505      -72.4529724      -52.1566238       113.430450    
   27.5000000       19.5907421      -71.7444382      -52.1536942       109.487007    
   27.6000004       20.3305416      -72.4777069      -52.1471596       113.621529    
   27.7000008       20.0027199      -72.1600342      -52.1573143       111.789429    
   27.8000011       19.7678165      -71.9076843      -52.1398659       110.476624    
   27.8999996       19.6775475      -71.7942123      -52.1166611       109.972137    
   28.0000000       20.0759296      -72.2113495      -52.1354179       112.198586    
   28.1000004       20.4307919      -72.5658493      -52.1350555       114.181808    
   28.1999989       20.0557270      -72.2046967      -52.1489639       112.085678    
   28.2999992       20.0207844      -72.1771088      -52.1563263       111.890396    
   28.3999996       20.7472363      -72.9285278      -52.1812859       115.950317    
   28.4999981       19.9647923      -72.1486893      -52.1838951       111.577461    
   28.6000004       19.2630901      -71.4200439      -52.1569519       107.655853    
   28.6999989       20.6278591      -72.7915421      -52.1636810       115.283150    
   28.7999992       19.8851509      -72.0229263      -52.1377792       111.132370    
   28.8999996       20.0660248      -72.2295074      -52.1634827       112.143227    
   28.9999981       19.4827728      -71.6132050      -52.1304359       108.883598    
   29.1000004       19.6788063      -71.7968292      -52.1180267       109.979179    
   29.1999989       19.6225128      -71.7624054      -52.1398964       109.664558    
   29.3000011       19.6540642      -71.8152008      -52.1611366       109.840897    
   29.3999977       19.7404842      -71.8962555      -52.1557693       110.323868    
   29.4999981       19.5910187      -71.7571259      -52.1661110       109.488548    
   29.6000004       19.3990307      -71.5611725      -52.1621437       108.415588    
   29.6999989       20.7096233      -72.8695145      -52.1598930       115.740112    
   29.8000011       19.3964329      -71.5556564      -52.1592255       108.401070    
   29.8999996       19.8139439      -71.9660416      -52.1521034       110.734421    
   30.0000000       20.2648125      -72.4278717      -52.1630592       113.254189    
   30.1000004       20.1769581      -72.3091507      -52.1321945       112.763206    
   30.1999989       19.6481400      -71.7535248      -52.1053848       109.807793    
   30.3000011       20.1800156      -72.3105774      -52.1305580       112.780289    
   30.3999996       20.3338413      -72.4869537      -52.1531105       113.639977    
   30.5000000       20.1363392      -72.2865829      -52.1502495       112.536186    
   30.5999985       20.3920460      -72.5779190      -52.1858711       113.965263    
   30.6999989       19.5861702      -71.7632599      -52.1770897       109.461464    
   30.7999992       20.2988243      -72.4734421      -52.1746178       113.444275    
   30.8999996       20.2982445      -72.5032120      -52.2049675       113.441032    
   31.0000000       20.1604919      -72.3496704      -52.1891747       112.671173    
   31.0999985       19.7581921      -71.9679794      -52.2097893       110.422836    
   31.1999989       20.5723534      -72.7905960      -52.2182465       114.972946    
   31.2999992       20.1940804      -72.3742676      -52.1801834       112.858894    
   31.3999996       19.6821690      -71.8652115      -52.1830444       109.997963    
   31.5000000       20.1652184      -72.3448181      -52.1795998       112.697586    
   31.6000004       20.3150921      -72.4869766      -52.1718864       113.535187    
   31.6999969       20.3050785      -72.4630814      -52.1580086       113.479225    
   31.8000011       20.6577168      -72.8075180      -52.1497993       115.450020    
   31.8999977       19.9203949      -72.0864868      -52.1660957       111.329346    
   31.9999981       20.4159756      -72.6075134      -52.1915436       114.098999    
   32.1000023       20.2399426      -72.4284668      -52.1885223       113.115204    
   32.2000008       20.0782566      -72.2601013      -52.1818428       112.211586    
   32.3000031       20.0066471      -72.2005615      -52.1939087       111.811378    
   32.3999977       20.1358395      -72.3275757      -52.1917381       112.533394    
   32.5000038       20.8317184      -73.0250244      -52.1933060       116.422462    
   32.5999985       19.7852116      -71.9775696      -52.1923561       110.573845    
   32.6999969       20.2642498      -72.4716263      -52.2073784       113.251053    
   32.7999992       20.0460873      -72.2435455      -52.1974564       112.031807    
   32.8999977       20.4599667      -72.6447067      -52.1847420       114.344856    
   33.0000000       19.8954372      -72.0559387      -52.1604996       111.189865    
   33.0999985       20.5089149      -72.6923294      -52.1834183       114.618416    
   33.2000008       20.1062088      -72.2863388      -52.1801262       112.367798    
   33.2999992       20.0951633      -72.2842026      -52.1890450       112.306068    
   33.4000015       20.4433403      -72.6335144      -52.1901741       114.251930    
   33.5000000       20.2414360      -72.4326172      -52.1911774       113.123550    
   33.5999985       19.9712944      -72.1219254      -52.1506310       111.613800    
   33.6999969       19.9831486      -72.1308899      -52.1477432       111.680054    
   33.7999992       20.2807865      -72.4488678      -52.1680832       113.343460    
   33.8999977       20.6800556      -72.8548126      -52.1747589       115.574875    
   34.0000000       20.5004234      -72.6605835      -52.1601601       114.570961    
   34.0999985       20.1174965      -72.2631454      -52.1456490       112.430885    
   34.1999969       20.1009369      -72.2526321      -52.1516991       112.338333    
   34.2999992       19.8120785      -71.9675217      -52.1554413       110.723999    
   34.3999977       19.9580650      -72.1336288      -52.1755676       111.539864    
   34.5000000       19.8669891      -72.0767593      -52.2097702       111.030876    
   34.6000023       20.0892239      -72.2767792      -52.1875610       112.272873    
   34.7000008       20.9046879      -73.1239777      -52.2192917       116.830269    
   34.8000031       20.3499470      -72.5252609      -52.1753159       113.729988    
   34.8999977       19.9746380      -72.1446304      -52.1699905       111.632492    
   35.0000000       19.9875641      -72.1441879      -52.1566238       111.704727    
   35.0999985       19.7470303      -71.8910446      -52.1440163       110.360458    
   35.2000008       20.3321476      -72.4717560      -52.1396103       113.630508    
   35.2999992       20.9244976      -73.0953064      -52.1708107       116.940987    
   35.3999977       19.9456863      -72.1101227      -52.1644402       111.470688    
   35.5000000       20.3627987      -72.5131378      -52.1503372       113.801804    
   35.5999985       20.1705742      -72.3308029      -52.1602287       112.727516    
   35.7000008       19.9763279      -72.1468201      -52.1704979       111.641937    
   35.7999992       19.9609413      -72.1294861      -52.1685486       111.555939    
   35.9000015       20.0463924      -72.2154541      -52.1690598       112.033508    
   36.0000000       19.9398613      -72.0993347      -52.1594696       111.438141    
   36.0999985       20.7571468      -72.9189606      -52.1618156       116.005699    
   36.2000008       20.0387478      -72.2211685      -52.1824188       111.990784    
   36.2999992       19.3444881      -71.5194473      -52.1749611       108.110764    
   36.3999977       19.9620724      -72.1423721      -52.1803017       111.562263    
   36.5000000       20.0884056      -72.2593689      -52.1709671       112.268311    
   36.6000023       20.0345345      -72.2102966      -52.1757622       111.967239    
   36.6999969       20.4193707      -72.6042633      -52.1848907       114.117973    
   36.7999992       20.5351334      -72.7321777      -52.1970406       114.764931    
   36.8999977       20.4603329      -72.6455002      -52.1851654       114.346901    
   37.0000000       19.7268906      -71.9027176      -52.1758308       110.247902    
   37.0999985       19.1406975      -71.3051529      -52.1644592       106.971840    
   37.1999969       20.0231075      -72.1872864      -52.1641769       111.903374    
   37.2999992       20.4099255      -72.5939865      -52.1840630       114.065186    
   37.3999977       20.3592472      -72.5207672      -52.1615181       113.781960    
   37.5000000       19.5900974      -71.7524948      -52.1623955       109.483398    
   37.5999985       19.3513870      -71.4925766      -52.1411858       108.149323    
   37.6999969       20.3586044      -72.5119095      -52.1533089       113.778374    
   37.7999992       20.4964771      -72.6524887      -52.1560097       114.548904    
   37.8999977       19.9511986      -72.0987625      -52.1475639       111.501495    
   37.9999962       19.7382030      -71.9237671      -52.1855621       110.311119    
   38.0999985       20.5801411      -72.7608490      -52.1807098       115.016479    
   38.1999969       20.6171894      -72.8289261      -52.2117348       115.223526    
   38.3000031       19.8681965      -72.0313492      -52.1631470       111.037613    
   38.4000015       19.8883972      -72.0436859      -52.1552887       111.150513    
   38.5000038       19.6928024      -71.8422699      -52.1494637       110.057396    
   38.6000023       19.7380657      -71.8887253      -52.1506577       110.310356    
   38.6999969       20.4803352      -72.6254425      -52.1451073       114.458679    
   38.8000031       20.1658707      -72.3231583      -52.1572914       112.701233    
   38.9000015       20.0582104      -72.2203293      -52.1621132       112.099548    
   39.0000038       20.3536186      -72.5055084      -52.1518898       113.750504    
   39.0999985       20.3455715      -72.4910431      -52.1454697       113.705536    
   39.2000008       20.4040127      -72.5368118      -52.1327972       114.032143    
   39.3000031       19.9740944      -72.1659012      -52.1918106       111.629456    
   39.4000015       20.5428085      -72.7045135      -52.1617050       114.807831    
   39.5000000       20.6343231      -72.8112640      -52.1769409       115.319283    
   39.6000023       20.3092766      -72.5015717      -52.1922989       113.502693    
   39.7000008       20.1702785      -72.3448563      -52.1745796       112.725868    
   39.7999992       20.1578064      -72.3391113      -52.1813087       112.656166    
   39.9000015       19.4031315      -71.5512848      -52.1481552       108.438507    
   40.0000000       20.3255863      -72.4827957      -52.1572075       113.593842    
   40.0999985       20.0336056      -72.1893387      -52.1557312       111.962036    
   40.1999969       20.2412910      -72.4026794      -52.1613884       113.122742    
   40.3000031       19.9103985      -72.0789490      -52.1685486       111.273468    
   40.4000015       19.8337440      -71.9910126      -52.1572647       110.845078    
   40.5000000       20.0153885      -72.1722641      -52.1568794       111.860237    
   40.5999985       20.2226048      -72.3966827      -52.1740799       113.018303    
   40.7000008       20.1499329      -72.3321991      -52.1822662       112.612160    
   40.8000031       20.0913773      -72.2820892      -52.1907082       112.284920    
   40.8999977       19.8058434      -71.9733658      -52.1675186       110.689140    
   41.0000000       20.0804672      -72.2548828      -52.1744156       112.223938    
   41.0999985       19.9157104      -72.0994263      -52.1837120       111.303169    
   41.1999969       20.3149910      -72.4967422      -52.1817513       113.534622    
   41.2999992       20.9811745      -73.1648178      -52.1836472       117.257736    
   41.4000015       19.8032398      -71.9974976      -52.1942558       110.674599    
   41.5000000       20.6944313      -72.8779373      -52.1835060       115.655212    
   41.5999985       19.9678440      -72.1486816      -52.1808395       111.594521    
   41.6999969       20.1343899      -72.3116913      -52.1772995       112.525299    
   41.8000031       20.3251553      -72.4639664      -52.1388092       113.591431    
   41.8999977       20.3387413      -72.4705963      -52.1318588       113.667358    
   41.9999962       20.0578938      -72.2034760      -52.1455879       112.097786    
   42.0999985       19.8080368      -71.9448776      -52.1368446       110.701408    
   42.1999969       20.2869148      -72.3942413      -52.1073303       113.377716    
   42.2999992       20.1203766      -72.2612152      -52.1408386       112.446983    
   42.3999977       20.5078163      -72.6436996      -52.1358871       114.612267    
   42.5000000       20.6403294      -72.8072357      -52.1669083       115.352852    
   42.5999947       20.3290844      -72.5102005      -52.1811142       113.613388    
   42.6999969       20.2663078      -72.4271774      -52.1608658       113.262550    
   42.7999992       19.9713097      -72.1239319      -52.1526222       111.613884    
   42.9000015       20.2471104      -72.4266815      -52.1795731       113.155258    
   42.9999962       20.4421310      -72.5890961      -52.1469650       114.245171    
   43.0999947       20.2725716      -72.4341202      -52.1615486       113.297554    
   43.1999969       20.0215969      -72.2035828      -52.1819878       111.894936    
   43.2999992       20.2371349      -72.3948898      -52.1577530       113.099510    
   43.3999977       20.7426758      -72.8915405      -52.1488647       115.924828    
   43.4999962       21.0511074      -73.2146225      -52.1635170       117.648567    
   43.6000023       20.2211609      -72.3675690      -52.1464081       113.010239    
   43.6999969       19.8870564      -72.0310059      -52.1439476       111.143021    
   43.8000031       19.7616119      -71.8978729      -52.1362648       110.441956    
   43.9000015       19.2744999      -71.4384003      -52.1639061       107.719620    
   44.0000000       20.4862728      -72.6501083      -52.1638374       114.491867    
   44.0999985       20.1912079      -72.3543396      -52.1631279       112.842834    
   44.2000008       20.4383183      -72.5706253      -52.1323051       114.223862    
   44.3000031       20.5012703      -72.6592407      -52.1579704       114.575691    
   44.3999977       19.8027267      -71.9772644      -52.1745338       110.671730    
   44.5000000       19.9274082      -72.1020126      -52.1746063       111.368538    
   44.5999985       20.4071579      -72.5866852      -52.1795273       114.049721    
   44.7000046       20.2111721      -72.3829498      -52.1717720       112.954414    
   44.7999992       20.2524147      -72.4127121      -52.1603012       113.184898    
   44.9000015       20.1668625      -72.3199081      -52.1530457       112.706779    
   45.0000000       20.5173054      -72.6624756      -52.1451683       114.665298    
   45.0999985       19.8698025      -72.0235443      -52.1537476       111.046593    
   45.1999969       20.2804966      -72.4266281      -52.1461296       113.341843    
   45.3000031       20.6639442      -72.8431854      -52.1792412       115.484825    
   45.4000015       20.3481197      -72.5076675      -52.1595459       113.719780    
   45.4999962       20.4537849      -72.6240005      -52.1702118       114.310303    
   45.5999985       20.1187840      -72.2829361      -52.1641541       112.438080    
   45.7000046       20.0427284      -72.1934357      -52.1507111       112.013023    
   45.7999992       20.0368767      -72.2022858      -52.1654091       111.980324    
   45.8999977       19.9997864      -72.1649933      -52.1652107       111.773041    
   46.0000000       20.6522408      -72.8187103      -52.1664696       115.419411    
   46.0999985       20.0937862      -72.2676392      -52.1738548       112.298370    
   46.2000008       19.9957218      -72.1555481      -52.1598244       111.750320    
   46.2999992       20.3313484      -72.4680099      -52.1366615       113.626045    
   46.4000015       20.5471210      -72.6671600      -52.1200447       114.831932    
   46.5000000       19.7126198      -71.8415909      -52.1289673       110.168152    
   46.5999947       20.0426483      -72.1808014      -52.1381531       112.012581    
   46.7000008       19.6135750      -71.7592545      -52.1456757       109.614609    
   46.8000031       20.0554104      -72.1998138      -52.1444054       112.083900    
   46.8999977       20.3062973      -72.4789658      -52.1726685       113.486046    
   46.9999962       20.1016502      -72.2576828      -52.1560364       112.342323    
   47.0999985       20.3088818      -72.4778671      -52.1689835       113.500481    
   47.2000008       19.8634987      -72.0153198      -52.1518173       111.011360    
   47.2999992       19.7615414      -71.9097137      -52.1481743       110.441551    
   47.3999977       19.7186069      -71.8972397      -52.1786308       110.201607    
   47.5000000       19.9044571      -72.0454559      -52.1409950       111.240265    
   47.5999947       20.1008186      -72.2832336      -52.1824188       112.337677    
   47.7000008       19.9448452      -72.1180649      -52.1732254       111.465996    
   47.7999992       19.9105759      -72.0788498      -52.1682739       111.274467    
   47.9000015       20.1471157      -72.3121109      -52.1650009       112.596413    
   47.9999962       20.2067089      -72.3648300      -52.1581192       112.929474    
   48.0999947       20.7172565      -72.8646164      -52.1473618       115.782768    
   48.2000008       20.3112316      -72.4578629      -52.1466331       113.513618    
   48.2999992       19.8297348      -71.9909439      -52.1612129       110.822670    
   48.3999977       20.1655540      -72.3310699      -52.1655197       112.699463    
   48.4999962       19.8577328      -72.0067139      -52.1489792       110.979141    
   48.5999985       20.1611843      -72.3245544      -52.1633720       112.675041    
   48.7000008       20.3934708      -72.5451813      -52.1517143       113.973228    
   48.8000031       19.9615211      -72.1224365      -52.1609116       111.559189    
   48.9000015       20.0238152      -72.1930313      -52.1692123       111.907333    
   49.0000000       20.1192684      -72.2427826      -52.1235123       112.440788    
   49.0999985       19.1580276      -71.3161774      -52.1581459       107.068687    
   49.2000046       19.5192719      -71.6929321      -52.1736565       109.087578    
   49.3000031       20.1317539      -72.2983856      -52.1666298       112.510567    
   49.3999977       20.4126377      -72.5974579      -52.1848183       114.080338    
   49.5000000       19.8265266      -72.0015259      -52.1750031       110.804733    
   49.5999985       19.9942570      -72.1669388      -52.1726837       111.742142    
   49.7000046       20.4931812      -72.6722565      -52.1790733       114.530479    
   49.7999992       19.8548164      -72.0085297      -52.1537170       110.962837    
   49.9000015       20.2852764      -72.4353180      -52.1500359       113.368561    
   50.0000000       20.3030491      -72.4461975      -52.1431427       113.467888    
   50.0999985       19.7772007      -71.9059448      -52.1287460       110.529068    
   50.2000008       19.3776760      -71.5073929      -52.1297150       108.296242    
   50.3000031       19.8886986      -72.0462418      -52.1575470       111.152199    
   50.4000015       20.6915779      -72.8409348      -52.1493530       115.639267    
   50.4999962       20.1213875      -72.2954712      -52.1740799       112.452629    
   50.5999985       20.0446930      -72.2297211      -52.1850281       112.024010    
   50.7000008       19.6480179      -71.8110886      -52.1630707       109.807106    
   50.7999992       19.9677448      -72.1401138      -52.1723709       111.593964    
   50.8999977       20.0537930      -72.2062607      -52.1524696       112.074867    
   51.0000000       19.8426952      -72.0001984      -52.1575012       110.895103    
   51.0999985       20.3825417      -72.5539322      -52.1713905       113.912140    
   51.2000008       20.0591984      -72.2143860      -52.1551895       112.105080    
   51.2999992       20.0803680      -72.2605972      -52.1802330       112.223381    
   51.4000015       19.7457542      -71.9155884      -52.1698380       110.353325    
   51.4999962       20.3718758      -72.5264816      -52.1546059       113.852539    
   51.5999947       20.1090870      -72.2726288      -52.1635437       112.383881    
   51.7000008       20.4972858      -72.6690140      -52.1717339       114.553421    
   51.7999992       20.4835186      -72.6485596      -52.1650429       114.476479    
   51.8999977       19.5547142      -71.7266541      -52.1719398       109.285652    
   51.9999962       20.0377674      -72.1947708      -52.1570015       111.985306    
   52.0999985       19.9927273      -72.1657333      -52.1730003       111.733589    
   52.2000008       19.7976665      -71.9809189      -52.1832542       110.643448    
   52.2999992       19.7508259      -71.9173889      -52.1665611       110.381668    
   52.3999977       19.7908306      -71.9541245      -52.1632957       110.605240    
   52.5000000       19.8596630      -72.0306625      -52.1709976       110.989929    
   52.5999947       20.2397709      -72.4240341      -52.1842613       113.114243    
   52.6999969       20.6115971      -72.7959366      -52.1843414       115.192276    
   52.7999992       20.3882294      -72.5860214      -52.1977921       113.943932    
   52.8999977       20.1367664      -72.2977829      -52.1610184       112.538582    
   52.9999962       19.9749680      -72.1450500      -52.1700859       111.634331    
   53.0999947       20.5744152      -72.7502289      -52.1758118       114.984474    
   53.2000008       20.3605595      -72.5546112      -52.1940536       113.789291    
   53.2999954       20.0655956      -72.2387009      -52.1731071       112.140823    
   53.3999977       20.3157215      -72.4926834      -52.1769638       113.538704    
   53.4999962       20.0704536      -72.2533188      -52.1828690       112.167976    
   53.6000023       19.9826584      -72.1643677      -52.1817131       111.677315    
   53.6999969       20.2257748      -72.3819351      -52.1561623       113.036018    
   53.8000031       20.3765583      -72.5126266      -52.1360703       113.878708    
   53.9000015       20.0144444      -72.1333008      -52.1188545       111.854958    
   53.9999962       20.1171379      -72.2379074      -52.1207733       112.428879    
   54.1000023       20.3158264      -72.4440536      -52.1282234       113.539299    
   54.2000008       19.9922943      -72.1054688      -52.1131744       111.731163    
   54.3000031       19.7822418      -71.9119110      -52.1296730       110.557243    
   54.3999977       20.3363323      -72.4931717      -52.1568375       113.653900    
   54.5000000       20.4678574      -72.6338577      -52.1660004       114.388947    
   54.6000023       19.6666737      -71.8087158      -52.1420441       109.911369    
   54.7000008       19.4376221      -71.5927887      -52.1551666       108.631264    
   54.7999992       19.8575974      -72.0316849      -52.1740875       110.978386    
   54.9000015       20.4289455      -72.5884933      -52.1595459       114.171478    
   55.0000000       20.1974754      -72.3730927      -52.1756172       112.877869    
   55.1000023       19.4192085      -71.5691757      -52.1499634       108.528358    
   55.2000008       20.5196552      -72.7098312      -52.1901741       114.678436    
   55.2999992       20.1816540      -72.3455887      -52.1639328       112.789436    
   55.4000015       19.4453125      -71.5995789      -52.1542664       108.674248    
   55.4999962       20.0753441      -72.2245331      -52.1491890       112.195305    
   55.6000023       20.7984257      -72.9546814      -52.1562576       116.236404    
   55.7000008       20.2590809      -72.4264450      -52.1673660       113.222160    
   55.7999992       19.6745262      -71.8196945      -52.1451683       109.955254    
   55.8999977       20.0062542      -72.1909790      -52.1847267       111.809181    
   56.0000000       19.9248314      -72.1068420      -52.1820068       111.354134    
   56.1000023       20.0311623      -72.2036362      -52.1724739       111.948387    
   56.2000008       20.4139214      -72.5819321      -52.1680145       114.087524    
   56.2999992       20.3215580      -72.5088501      -52.1872978       113.571327    
   56.3999977       19.7211475      -71.9062424      -52.1850967       110.215813    
   56.4999962       20.4147987      -72.5950089      -52.1802063       114.092422    
   56.5999985       19.7681160      -71.9539948      -52.1858788       110.478294    
   56.7000008       20.1483822      -72.3606491      -52.2122688       112.603500    
   56.7999992       19.8547573      -72.0583878      -52.2036285       110.962509    
   56.8999977       19.8648529      -72.0701752      -52.2053223       111.018936    
   56.9999962       20.4394894      -72.6206055      -52.1811142       114.230408    
   57.1000023       19.8926182      -72.0576553      -52.1650391       111.174110    
   57.2000008       20.3148975      -72.4562988      -52.1414032       113.534103    
   57.2999992       20.1190186      -72.2789154      -52.1599007       112.439392    
   57.3999977       20.2164669      -72.4005661      -52.1840973       112.984009    
   57.4999962       19.9541798      -72.1136169      -52.1594315       111.518158    
   57.5999985       20.5827274      -72.7578812      -52.1751518       115.030930    
   57.6999969       20.3308315      -72.4986496      -52.1678200       113.623161    
   57.7999992       20.5293255      -72.6961212      -52.1667938       114.732475    
   57.8999977       19.9231358      -72.0767670      -52.1536331       111.344658    
   57.9999962       19.8902016      -72.0501938      -52.1599922       111.160606    
   58.0999985       19.8127022      -71.9770889      -52.1643906       110.727478    
   58.2000008       20.1022930      -72.2672577      -52.1649666       112.345917    
   58.2999954       20.0129833      -72.1993561      -52.1863747       111.846786    
   58.3999977       20.5768223      -72.7263260      -52.1495018       114.997917    
   58.4999962       20.0132141      -72.1655884      -52.1523743       111.848076    
   58.6000023       20.6280746      -72.7969284      -52.1688538       115.284355    
   58.6999969       20.1062469      -72.2891159      -52.1828728       112.368011    
   58.7999954       19.9847336      -72.1434021      -52.1586647       111.688919    
   58.9000015       19.9308815      -72.1113663      -52.1804810       111.387947    
   58.9999962       20.2156754      -72.3977203      -52.1820450       112.979576    
   59.1000023       20.3887482      -72.5695419      -52.1807938       113.946831    
   59.2000008       19.6768913      -71.8428421      -52.1659508       109.968475    
   59.3000031       19.6588459      -71.8313522      -52.1725082       109.867615    
   59.3999977       20.0717716      -72.2326202      -52.1608505       112.175346    
   59.5000000       20.2233047      -72.3948364      -52.1715355       113.022224    
   59.6000023       20.1350002      -72.2822876      -52.1472931       112.528702    
   59.7000008       20.0136585      -72.1757965      -52.1621437       111.850571    
   59.7999992       19.7749367      -71.9233017      -52.1483612       110.516418    
   59.9000015       19.5421200      -71.7056122      -52.1634941       109.215271    
   60.0000000       20.2508278      -72.4421082      -52.1912804       113.176033    
   60.0999985       19.7302876      -71.9041824      -52.1738968       110.266884    
   60.2000008       19.6274242      -71.7986603      -52.1712379       109.692017    
   60.2999992       20.1619434      -72.3263168      -52.1643753       112.679283    
   60.3999977       20.3307590      -72.5117874      -52.1810303       113.622749    
   60.4999962       20.6368923      -72.8248520      -52.1879539       115.333641    
   60.6000023       20.1381531      -72.3111954      -52.1730423       112.546333    
   60.7000008       20.2376156      -72.4168396      -52.1792183       113.102196    
   60.7999992       20.5925560      -72.7653122      -52.1727600       115.085854    
   60.8999977       20.3573933      -72.5562363      -52.1988449       113.771599    
   61.0000000       19.5160332      -71.7138748      -52.1978416       109.069481    
   61.1000023       19.9957504      -72.1935959      -52.1978493       111.750481    
   61.1999969       20.0473804      -72.2559357      -52.2085571       112.039024    
   61.2999992       20.7014103      -72.9015656      -52.2001534       115.694214    
   61.3999977       20.2957249      -72.4794235      -52.1837006       113.426956    
   61.4999962       19.6723957      -71.8490448      -52.1766510       109.943344    
   61.5999985       19.4896088      -71.6710968      -52.1814880       108.921806    
   61.7000008       19.8516922      -72.0150909      -52.1633949       110.945389    
   61.7999992       19.9880524      -72.1377640      -52.1497154       111.707458    
   61.8999977       20.1726341      -72.2976532      -52.1250191       112.739037    
   62.0000000       20.2268105      -72.3620529      -52.1352425       113.041809    
   62.1000023       20.4872932      -72.6517944      -52.1645012       114.497574    
   62.1999969       20.4247875      -72.6021500      -52.1773605       114.148239    
   62.2999954       20.2834606      -72.4656982      -52.1822357       113.358414    
   62.3999977       20.0933342      -72.2637024      -52.1703644       112.295853    
   62.5000038       20.3125515      -72.4796753      -52.1671257       113.520996    
   62.5999985       19.8904495      -72.0596313      -52.1691780       111.161980    
   62.6999969       20.2328587      -72.3771896      -52.1443291       113.075615    
   62.7999992       20.5059624      -72.6561050      -52.1501427       114.601906    
   62.8999977       20.6786938      -72.8553238      -52.1766319       115.567253    
   63.0000000       20.3168430      -72.4928207      -52.1759796       113.544983    
   63.0999985       19.5503235      -71.6908722      -52.1405525       109.261116    
   63.2000008       20.6201172      -72.7687912      -52.1486740       115.239883    
   63.2999954       20.0342712      -72.1619873      -52.1277122       111.965759    
   63.3999939       20.3367577      -72.5027847      -52.1660194       113.656273    
   63.5000000       20.1936531      -72.3474884      -52.1538353       112.856506    
   63.6000023       20.1537914      -72.3149261      -52.1611328       112.633728    
   63.6999969       20.3213711      -72.4754181      -52.1540527       113.570282    
   63.7999954       20.0729771      -72.2395554      -52.1665764       112.182083    
   63.8999977       19.4865093      -71.6624069      -52.1758957       108.904480    
   63.9999962       20.4915962      -72.6589127      -52.1673203       114.521622    
   64.0999985       19.8281574      -72.0102005      -52.1820450       110.813858    
   64.2000046       19.7280636      -71.9221878      -52.1941261       110.254456    
   64.3000031       19.7286167      -71.9050598      -52.1764450       110.257545    
   64.4000015       20.3928452      -72.5349121      -52.1420670       113.969734    
   64.5000000       20.2416763      -72.3998260      -52.1581535       113.124893    
   64.6000061       19.5521870      -71.7126083      -52.1604233       109.271538    
   64.6999969       19.8217564      -71.9932480      -52.1714897       110.778084    
   64.7999954       20.1243000      -72.2593613      -52.1350670       112.468910    
   64.9000015       20.0999126      -72.2409058      -52.1409912       112.332619    
   65.0000076       20.4425106      -72.6068802      -52.1643715       114.247292    
   65.0999985       19.8672523      -72.0181732      -52.1509209       111.032341    
   65.1999969       19.8053055      -71.9588242      -52.1535225       110.686134    
   65.3000031       19.7569504      -71.9348907      -52.1779404       110.415894    
   65.3999939       20.4117947      -72.5869598      -52.1751595       114.075638    
   65.5000000       19.3026333      -71.4611588      -52.1585197       107.876854    
   65.5999985       19.6522179      -71.7955933      -52.1433792       109.830574    
   65.7000046       20.1518021      -72.3192673      -52.1674652       112.622612    
   65.7999954       20.0126171      -72.1638107      -52.1511917       111.844742    
   65.8999939       20.3443279      -72.5091858      -52.1648560       113.698586    
   66.0000000       20.4814949      -72.6659393      -52.1844482       114.465164    
   66.1000061       20.3976841      -72.5637665      -52.1660843       113.996773    
   66.1999969       19.9101562      -72.0901031      -52.1799469       111.272125    
   66.2999954       20.1484241      -72.3278046      -52.1793785       112.603737    
   66.4000015       20.6275196      -72.8048706      -52.1773529       115.281250    
   66.5000000       19.3520908      -71.5201187      -52.1680260       108.153252    
   66.5999985       19.9206161      -72.0977631      -52.1771507       111.330574    
   66.6999969       19.8754635      -72.0352631      -52.1598053       111.078239    
   66.8000031       20.3370399      -72.5298462      -52.1928139       113.657845    
   66.8999939       19.5699883      -71.7308655      -52.1608772       109.371017    
   67.0000000       19.9633980      -72.1010208      -52.1376190       111.569679    
   67.0999985       20.1744099      -72.3149872      -52.1405754       112.748955    
   67.1999969       19.8247414      -71.9912491      -52.1665077       110.794762    
   67.2999954       20.3315086      -72.5013275      -52.1698151       113.626938    
   67.3999939       19.6953831      -71.8516388      -52.1562576       110.071815    
   67.5000000       19.9482765      -72.1063690      -52.1580925       111.485161    
   67.5999985       19.9992352      -72.1501236      -52.1508904       111.769958    
   67.6999969       20.2959042      -72.4483490      -52.1524429       113.427956    
   67.7999954       20.1116486      -72.2810059      -52.1693573       112.398201    
   67.8999939       20.6138992      -72.7972717      -52.1833763       115.205139    
   68.0000000       20.2868557      -72.4414825      -52.1546288       113.377380    
   68.0999985       20.1040630      -72.2597122      -52.1556473       112.355804    
   68.1999969       20.5520191      -72.7406921      -52.1886749       114.859314    
   68.2999954       20.2878590      -72.4737549      -52.1858940       113.382996    
   68.3999939       20.5331821      -72.7100906      -52.1769066       114.754036    
   68.5000000       20.4475212      -72.5966415      -52.1491241       114.275291    
   68.5999985       20.5582542      -72.7075806      -52.1493263       114.894157    
   68.6999969       19.9260616      -72.0793915      -52.1533318       111.361008    
   68.7999954       20.1571579      -72.2965317      -52.1393738       112.652534    
   68.8999939       19.8555260      -71.9933243      -52.1377945       110.966812    
   69.0000000       20.4938545      -72.6566010      -52.1627464       114.534241    
   69.0999985       20.5286865      -72.6697769      -52.1410942       114.728905    
   69.2000046       20.5165997      -72.6645355      -52.1479340       114.661354    
   69.2999954       20.3197098      -72.4922028      -52.1724968       113.560997    
   69.4000015       20.1349602      -72.2802353      -52.1452789       112.528481    
   69.5000000       19.6919498      -71.8338318      -52.1418800       110.052628    
   69.6000061       19.6135483      -71.7688293      -52.1552811       109.614464    
   69.6999969       20.2107773      -72.3925858      -52.1818085       112.952209    
   69.7999954       20.3102951      -72.4999619      -52.1896706       113.508385    
   69.9000015       20.4348202      -72.6329346      -52.1981125       114.204315    
   70.0000000       20.3450184      -72.5440979      -52.1990776       113.702446    
   70.0999985       20.0678730      -72.2612610      -52.1933899       112.153549    
   70.1999969       20.7418575      -72.9344711      -52.1926117       115.920258    
   70.3000031       20.4403896      -72.6657867      -52.2253990       114.235435    
   70.4000015       20.6541443      -72.8631287      -52.2089882       115.430061    
   70.5000000       20.8849907      -73.0920868      -52.2070961       116.720192    
   70.5999985       20.7713356      -72.9620209      -52.1906815       116.085007    
   70.7000046       20.0246372      -72.1822815      -52.1576424       111.911926    
   70.7999954       20.1746445      -72.3289795      -52.1543350       112.750275    
   70.9000015       19.7211475      -71.8772278      -52.1560783       110.215813    
   71.0000000       20.0502968      -72.2223358      -52.1720428       112.055321    
   71.0999985       20.3394604      -72.5335922      -52.1941299       113.671379    
   71.1999969       20.2866039      -72.4699326      -52.1833267       113.375977    
   71.2999954       20.1004982      -72.2950058      -52.1945038       112.335884    
   71.4000015       20.5740433      -72.7849274      -52.2108879       114.982391    
   71.5000000       20.3564777      -72.5636139      -52.2071381       113.766479    
   71.5999985       19.5724239      -71.7564621      -52.1840363       109.384628    
   71.6999969       20.1102791      -72.3007736      -52.1904945       112.390556    
   71.8000031       20.0838375      -72.2627945      -52.1789551       112.242775    
   71.9000015       19.7973862      -71.9812546      -52.1838684       110.641876    
   72.0000000       20.3858547      -72.5819168      -52.1960678       113.930664    
   72.0999985       20.5150547      -72.6996613      -52.1846046       114.652725    
   72.1999969       20.7203274      -72.9160995      -52.1957664       115.799934    
   72.2999954       20.2215748      -72.3965302      -52.1749573       113.012550    
   72.4000015       19.9466820      -72.1307220      -52.1840401       111.476250    
   72.5000000       19.9567795      -72.1233749      -52.1665955       111.532684    
   72.5999985       19.8440228      -72.0091934      -52.1651688       110.902519    
   72.6999969       20.0416260      -72.2210922      -52.1794624       112.006866    
   72.7999954       20.3822002      -72.5606537      -52.1784515       113.910233    
   72.9000015       20.1291504      -72.2971649      -52.1680183       112.496017    
   73.0000000       19.7973728      -71.9522858      -52.1549110       110.641800    
   73.0999908       19.5982513      -71.7584534      -52.1601982       109.528976    
   73.2000046       19.9477997      -72.1056900      -52.1578903       111.482506    
   73.2999954       19.9901733      -72.1286240      -52.1384506       111.719307    
   73.3999939       19.8819523      -72.0219803      -52.1400299       111.114494    
   73.4999924       19.8340816      -71.9452591      -52.1111794       110.846962    
   73.5999985       19.9769707      -72.1044769      -52.1275024       111.645531    
   73.6999969       19.9014130      -72.0200806      -52.1186714       111.223251    
   73.7999954       20.4189587      -72.5386124      -52.1196556       114.115669    
   73.8999939       20.1243553      -72.2601929      -52.1358376       112.469215    
   74.0000000       20.2705193      -72.4019623      -52.1314392       113.286087    
   74.0999985       19.9517059      -72.0984116      -52.1467018       111.504326    
   74.1999969       20.6790161      -72.8419876      -52.1629753       115.569054    
   74.2999954       20.2386971      -72.4100494      -52.1713486       113.108246    
   74.3999939       19.9950600      -72.1674957      -52.1724319       111.746620    
   74.5000000       20.2068825      -72.3969574      -52.1900711       112.930443    
   74.5999985       20.7909622      -72.9764786      -52.1855164       116.194695    
   74.6999969       20.1697979      -72.3372955      -52.1674995       112.723183    
   74.7999954       20.0829792      -72.2457123      -52.1627312       112.237976    
   74.9000015       19.4213696      -71.5885696      -52.1672020       108.540428    
   75.0000000       20.2350578      -72.3783417      -52.1432838       113.087906    
   75.0999908       20.0769081      -72.2299881      -52.1530762       112.204056    
   75.1999969       20.4153538      -72.5532990      -52.1379433       114.095520    
   75.3000031       20.1444702      -72.2878799      -52.1434059       112.581642    
   75.3999939       20.1552315      -72.2950134      -52.1397781       112.641777    
   75.4999924       19.3855095      -71.4992294      -52.1137238       108.340019    
   75.5999985       20.3162384      -72.4212799      -52.1050377       113.541595    
   75.6999969       19.4751358      -71.5772781      -52.1021423       108.840912    
   75.7999954       19.3969593      -71.4892502      -52.0922928       108.404015    
   75.8999939       20.1991215      -72.3223953      -52.1232796       112.887070    
   75.9999924       19.5134468      -71.6422348      -52.1287880       109.055023    
   76.0999985       19.9741058      -72.1183777      -52.1442757       111.629517    
   76.1999969       19.5307961      -71.6884918      -52.1577034       109.151985    
   76.2999954       20.2519035      -72.4192047      -52.1672974       113.182053    
   76.3999939       20.9161606      -73.0879974      -52.1718330       116.894394    
   76.4999924       20.9485111      -73.1155701      -52.1670570       117.075188    
   76.6000061       19.7706814      -71.9549408      -52.1842613       110.492638    
   76.6999969       19.8519268      -72.0145721      -52.1626472       110.946693    
   76.8000031       19.8184280      -71.9778366      -52.1594124       110.759476    
   76.9000015       19.6539249      -71.8305130      -52.1765900       109.840111    
   77.0000076       20.0620136      -72.2340622      -52.1720505       112.120804    
   77.1000061       20.2753143      -72.4387741      -52.1634598       113.312881    
   77.2000046       20.2709351      -72.4437027      -52.1727676       113.288406    
   77.3000031       19.5450459      -71.7033768      -52.1583328       109.231628    
   77.3999939       20.0519371      -72.1898956      -52.1379547       112.064499    
   77.5000076       19.5989113      -71.7461014      -52.1471901       109.532661    
   77.6000061       20.4052429      -72.5657272      -52.1604805       114.039017    
   77.6999969       20.5451965      -72.7148590      -52.1696625       114.821175    
   77.8000031       20.2547417      -72.4286804      -52.1739388       113.197914    
   77.8999939       20.0819225      -72.2572937      -52.1753693       112.232071    
   78.0000076       19.9670715      -72.1264648      -52.1593933       111.590202    
   78.1000061       19.8345509      -71.9672089      -52.1326599       110.849579    
   78.1999969       20.3760128      -72.4929886      -52.1169777       113.875664    
   78.3000107       20.2392464      -72.3683853      -52.1291351       113.111305    
   78.4000015       19.7474670      -71.9016266      -52.1541634       110.362900    
   78.5000000       20.3924923      -72.5545731      -52.1620789       113.967751    
   78.6000061       20.2162647      -72.4121704      -52.1959076       112.982872    
   78.6999969       19.9633293      -72.1340332      -52.1707039       111.569290    
   78.8000031       20.1415710      -72.2981491      -52.1565781       112.565430    
   78.9000015       19.9309216      -72.0641937      -52.1332741       111.388168    
   79.0000000       19.9167747      -72.0784225      -52.1616440       111.309113    
   79.0999985       19.6080971      -71.7584534      -52.1503563       109.583992    
   79.2000046       20.2116127      -72.3797760      -52.1681633       112.956879    
   79.3000031       20.0330849      -72.2146683      -52.1815834       111.959129    
   79.4000015       20.2426929      -72.4155731      -52.1728821       113.130569    
   79.5000000       19.9836578      -72.1575928      -52.1739349       111.682892    
   79.5999985       19.8433018      -72.0147247      -52.1714249       110.898491    
   79.7000046       19.8426685      -72.0313873      -52.1887169       110.894951    
   79.8000031       19.7455597      -71.9074326      -52.1618729       110.352234    
   79.8999939       20.2031918      -72.3491211      -52.1459274       112.909813    
   80.0000000       20.1880169      -72.3440857      -52.1560707       112.824997    
   80.1000061       19.6860428      -71.8631287      -52.1770821       110.019615    
   80.1999969       20.0526886      -72.2144318      -52.1617393       112.068695    
   80.3000031       20.5692329      -72.7355728      -52.1663399       114.955505    
   80.3999939       19.7747726      -71.9424820      -52.1677055       110.515495    
   80.5000076       20.7015800      -72.8737488      -52.1721687       115.695168    
   80.6000061       21.2352524      -73.4175186      -52.1822701       118.677704    
   80.6999969       20.9211712      -73.0856323      -52.1644630       116.922394    
   80.8000031       20.8261433      -72.9757919      -52.1496506       116.391304    
   80.8999939       19.9160309      -72.0669632      -52.1509323       111.304947    
   81.0000000       20.5474606      -72.6705322      -52.1230698       114.833832    
   81.1000061       19.9474621      -72.0841141      -52.1366577       111.480614    
   81.1999969       20.0645790      -72.2134933      -52.1489143       112.135139    
   81.2999954       20.0331631      -72.1590958      -52.1259346       111.959564    
   81.4000015       20.1839333      -72.3337479      -52.1498184       112.802177    
   81.5000000       20.1997128      -72.3629532      -52.1632423       112.890373    
   81.6000061       20.0304031      -72.1781082      -52.1477089       111.944145    
   81.6999969       19.7698288      -71.9058533      -52.1360283       110.487869    
   81.7999954       19.7069225      -71.8449936      -52.1380730       110.136299    
   81.9000015       20.1285248      -72.2709198      -52.1423950       112.492523    
   82.0000000       20.1196861      -72.2843857      -52.1647034       112.443115    
   82.0999985       20.3819675      -72.5501709      -52.1682053       113.908936    
   82.1999969       20.7259426      -72.9111938      -52.1852570       115.831322    
   82.3000031       20.5019054      -72.6750183      -52.1731110       114.579239    
   82.3999939       20.1903610      -72.3662033      -52.1758385       112.838104    
   82.5000000       20.0657558      -72.2406464      -52.1748886       112.141724    
   82.5999985       20.0853710      -72.2380829      -52.1527138       112.251343    
   82.6999893       19.9557056      -72.0968475      -52.1411438       111.526680    
   82.8000031       20.3696060      -72.5256805      -52.1560707       113.839859    
   82.8999939       20.0825367      -72.2357101      -52.1531754       112.235504    
   83.0000000       19.7482414      -71.9055939      -52.1573524       110.367226    
   83.0999985       20.3652020      -72.5251236      -52.1599236       113.815247    
   83.1999969       20.6513691      -72.8326645      -52.1812935       115.414551    
   83.3000031       20.0607376      -72.2181473      -52.1574097       112.113678    
   83.3999939       20.2513905      -72.4086838      -52.1572914       113.179184    
   83.4999924       20.2082005      -72.3470154      -52.1388168       112.937798    
   83.6000061       20.6438599      -72.8034058      -52.1595459       115.372581    
   83.6999969       19.9390564      -72.1110306      -52.1719742       111.433632    
   83.7999954       19.7352867      -71.9005280      -52.1652412       110.294823    
   83.8999939       19.9418335      -72.1102905      -52.1684570       111.449150    
   83.9999924       19.6583233      -71.8338852      -52.1755638       109.864700    
   84.1000061       20.2292347      -72.4015350      -52.1723022       113.055359    
   84.1999969       20.1993389      -72.3762817      -52.1769447       112.888275    
   84.2999954       19.3803978      -71.5100174      -52.1296196       108.311455    
   84.3999939       20.0343609      -72.1700058      -52.1356430       111.966270    
   84.5000000       20.1770935      -72.3286285      -52.1515312       112.763962    
   84.5999985       19.8134365      -71.9658432      -52.1524086       110.731583    
   84.6999969       20.3327465      -72.4808655      -52.1481209       113.633850    
   84.7999954       20.1021881      -72.2362823      -52.1340942       112.345337    
   84.8999863       19.5350170      -71.6669464      -52.1319313       109.175583    
   85.0000000       19.9105892      -72.0569077      -52.1463203       111.274536    
   85.0999985       20.6604137      -72.8179092      -52.1574974       115.465096    
   85.1999893       20.6956196      -72.8554459      -52.1598244       115.661858    
   85.2999954       20.1269379      -72.2675858      -52.1406479       112.483650    
   85.3999939       20.3222771      -72.5009384      -52.1786575       113.575340    
   85.5000000       20.1443176      -72.2961655      -52.1518517       112.580788    
   85.5999985       20.3415565      -72.4922867      -52.1507339       113.683090    
   85.6999893       20.3051529      -72.4765167      -52.1713638       113.479645    
   85.8000031       19.7773819      -71.9322128      -52.1548271       110.530075    
   85.8999939       20.3364353      -72.4975204      -52.1610870       113.654472    
   85.9999924       20.2183590      -72.3852768      -52.1669159       112.994583    
   86.0999985       20.1891136      -72.3384781      -52.1493607       112.831139    
   86.1999893       19.8496227      -71.9809570      -52.1313324       110.933823    
   86.2999954       19.3658638      -71.4918671      -52.1260033       108.230232    
   86.3999939       20.3106670      -72.4496078      -52.1389427       113.510452    
   86.4999924       20.1818962      -72.3125763      -52.1306801       112.790794    
   86.5999985       20.2570934      -72.4185410      -52.1614494       113.211052    
   86.6999969       20.5635128      -72.7309952      -52.1674805       114.923538    
   86.7999954       20.4538765      -72.6254578      -52.1715775       114.310814    
   86.8999939       20.0035820      -72.1460114      -52.1424294       111.794250    
   86.9999924       19.6923103      -71.8361664      -52.1438599       110.054642    
   87.1000061       20.0584869      -72.2163773      -52.1578941       112.101089    
   87.2000046       19.7585030      -71.9164429      -52.1579399       110.424576    
   87.3000031       20.0901718      -72.2499313      -52.1597633       112.278183    
   87.3999939       19.2344685      -71.4004135      -52.1659431       107.495895    
   87.5000076       20.7862091      -72.9929123      -52.2066994       116.168129    
   87.6000061       20.6017189      -72.8085098      -52.2067909       115.137062    
   87.6999969       20.0974941      -72.2620468      -52.1645584       112.319099    
   87.8000031       20.8333111      -72.9959641      -52.1626511       116.431366    
   87.8999939       20.5556774      -72.7115784      -52.1559029       114.879753    
   88.0000000       20.5453682      -72.7505875      -52.2052231       114.822136    
   88.1000061       20.5801830      -72.7778625      -52.1976776       115.016708    
   88.1999969       20.7898521      -72.9762344      -52.1863823       116.188492    
   88.3000031       19.4197369      -71.6117554      -52.1920204       108.531303    
   88.4000015       19.9044571      -72.0792694      -52.1748161       111.240265    
   88.5000000       20.2229404      -72.3959656      -52.1730232       113.020180    
   88.6000061       20.2271843      -72.4073639      -52.1801796       113.043900    
   88.6999969       19.7568417      -71.9552078      -52.1983643       110.415291    
   88.7999954       20.2316875      -72.4172821      -52.1855927       113.069069    
   88.9000092       20.6274128      -72.8008347      -52.1734200       115.280663    
   89.0000000       20.1067429      -72.2714462      -52.1647034       112.370789    
   89.0999985       19.7605095      -71.9406357      -52.1801262       110.435783    
   89.1999969       20.1436577      -72.3057938      -52.1621361       112.577095    
   89.3000031       20.4005737      -72.5313797      -52.1308022       114.012924    
   89.4000092       20.7132835      -72.8545914      -52.1413040       115.760567    
   89.5000000       19.6128616      -71.7428207      -52.1299591       109.610626    
   89.5999985       20.0972195      -72.2518387      -52.1546173       112.317558    
   89.7000046       20.1551170      -72.3173447      -52.1622276       112.641136    
   89.8000031       20.3633804      -72.5358505      -52.1724701       113.805061    
   89.8999939       20.7204113      -72.8650894      -52.1446762       115.800400    
   90.0000000       20.5243435      -72.7075653      -52.1832275       114.704628    
   90.1000061       20.6203327      -72.8159637      -52.1956291       115.241096    
   90.1999969       20.5903988      -72.7652054      -52.1748047       115.073799    
   90.3000031       20.1092663      -72.2804260      -52.1711578       112.384888    
   90.3999939       20.5053387      -72.6752472      -52.1699066       114.598427    
   90.5000000       20.3854847      -72.5484390      -52.1629524       113.928596    
   90.6000061       20.6067600      -72.7522430      -52.1454811       115.165237    
   90.6999969       20.5242214      -72.6741943      -52.1499710       114.703949    
   90.8000031       19.7169857      -71.8774643      -52.1604767       110.192543    
   90.9000015       19.9513664      -72.1254120      -52.1740417       111.502434    
   90.9999924       20.0649281      -72.2169418      -52.1520119       112.137100    
   91.1000061       20.4837437      -72.6486740      -52.1649284       114.477730    
   91.1999969       20.2596016      -72.4306412      -52.1710434       113.225067    
   91.2999954       19.9637280      -72.1242447      -52.1605148       111.571518    
   91.4000092       20.2948837      -72.4465485      -52.1516647       113.422249    
   91.5000000       20.8285923      -72.9731674      -52.1445770       116.404991    
   91.5999985       19.9356670      -72.1149597      -52.1792908       111.414696    
   91.6999969       20.2821865      -72.4554214      -52.1732368       113.351288    
   91.7999954       19.6255569      -71.8101883      -52.1846313       109.681572    
   91.9000092       20.4458733      -72.6122131      -52.1663399       114.266090    
   92.0000000       20.1480312      -72.3201523      -52.1721191       112.601532    
   92.0999985       19.9405689      -72.1062927      -52.1657219       111.442085    
   92.1999969       19.6551056      -71.8022003      -52.1470985       109.846718    
   92.3000031       20.1564140      -72.2886581      -52.1322479       112.648392    
   92.4000015       19.8470764      -71.9816360      -52.1345596       110.919586    
   92.5000000       19.4065170      -71.5435867      -52.1370735       108.457420    
   92.5999985       20.0470276      -72.2015152      -52.1544876       112.037056    
   92.6999893       20.0017281      -72.1781540      -52.1764221       111.783890    
   92.8000031       20.6140251      -72.8115616      -52.1975365       115.205833    
   92.9000015       19.9472504      -72.1163101      -52.1690598       111.479431    
   93.0000000       20.1339321      -72.2852325      -52.1512985       112.522743    
   93.0999985       20.1051693      -72.2483978      -52.1432343       112.361992    
   93.1999893       20.3659916      -72.5649643      -52.1989670       113.819656    
   93.3000031       20.0429134      -72.2336502      -52.1907387       112.014061    
   93.4000015       19.8032951      -71.9790573      -52.1757584       110.674911    
   93.4999924       20.5032330      -72.6707382      -52.1675072       114.586655    
   93.6000061       20.1219349      -72.2909851      -52.1690483       112.455696    
   93.6999969       19.7092361      -71.8600998      -52.1508675       110.149239    
   93.7999954       19.8410587      -71.9810791      -52.1400223       110.885956    
   93.9000015       19.8204441      -71.9533005      -52.1328621       110.770744    
   93.9999924       19.6738834      -71.8016739      -52.1277924       109.951660    
   94.0999985       20.3004017      -72.4522934      -52.1518936       113.453094    
   94.1999969       20.6100998      -72.7531052      -52.1430016       115.183907    
   94.2999954       20.5509033      -72.7143173      -52.1634178       114.853065    
   94.4000015       20.0142860      -72.1576996      -52.1434097       111.854065    
   94.4999924       20.2973499      -72.4651489      -52.1678009       113.436035    
   94.5999985       20.2312717      -72.4128036      -52.1815338       113.066742    
   94.6999969       20.5343513      -72.6973953      -52.1630440       114.760567    
   94.7999954       20.5469742      -72.7247696      -52.1777954       114.831108    
   94.8999939       20.3707809      -72.5462494      -52.1754646       113.846420    
   95.0000000       20.1796932      -72.3530273      -52.1733360       112.778481    
   95.0999985       21.0280800      -73.2045441      -52.1764641       117.519875    
   95.1999893       19.8770714      -72.0426254      -52.1655579       111.087227    
   95.2999954       20.2974548      -72.4878159      -52.1903610       113.436623    
   95.4000015       19.7555161      -71.8839264      -52.1284142       110.407883    
   95.5000000       19.7791271      -71.9224243      -52.1432991       110.539833    
   95.5999985       20.0363331      -72.1856766      -52.1493416       111.977287    
   95.6999893       20.1137772      -72.2560501      -52.1422691       112.410095    
   95.8000031       20.7014160      -72.8515625      -52.1501503       115.694244    
   95.9000015       20.2374210      -72.4025879      -52.1651688       113.101112    
   95.9999924       19.6224346      -71.7875290      -52.1650925       109.664131    
   96.0999985       20.0252895      -72.1543884      -52.1291008       111.915565    
   96.1999893       20.1118450      -72.2641525      -52.1523094       112.399300    
   96.2999954       20.0123997      -72.1772385      -52.1648331       111.843529    
   96.4000015       20.0371456      -72.1846619      -52.1475143       111.981827    
   96.4999924       20.5284634      -72.6942291      -52.1657639       114.727654    
   96.5999985       19.5235729      -71.7028275      -52.1792488       109.111626    
   96.6999893       20.2141266      -72.3886795      -52.1745491       112.970924    
   96.7999954       20.2831841      -72.4699936      -52.1868095       113.356873    
   96.9000015       20.3791103      -72.5589371      -52.1798286       113.892967    
   96.9999924       19.7120361      -71.8681717      -52.1561317       110.164879    
   97.0999908       19.9599495      -72.1041565      -52.1442070       111.550392    
   97.1999969       20.3655090      -72.5455933      -52.1800880       113.816956    
   97.3000031       20.1754665      -72.3506012      -52.1751328       112.754868    
   97.4000015       19.9164543      -72.0753098      -52.1588554       111.307320    
   97.5000000       19.8041782      -71.9517059      -52.1475296       110.679832    
   97.6000061       20.0202541      -72.1619568      -52.1417007       111.887428    
   97.6999969       19.7760334      -71.9289017      -52.1528664       110.522545    
   97.8000031       20.2377052      -72.3783646      -52.1406593       113.102699    
   97.9000015       20.3341713      -72.4996033      -52.1654320       113.641823    
   98.0000000       19.8086185      -71.9752502      -52.1666336       110.704651    
   98.1000061       20.2640762      -72.4364395      -52.1723633       113.250084    
   98.1999969       20.5720196      -72.7075348      -52.1355133       114.971085    
   98.3000031       20.3326283      -72.4642334      -52.1316071       113.633194    
   98.4000092       19.9323730      -72.0786285      -52.1462517       111.396286    
   98.5000000       20.5305023      -72.7101822      -52.1796837       114.739059    
   98.6000061       20.8674679      -73.0583038      -52.1908340       116.622253    
   98.6999969       20.1931992      -72.3548355      -52.1616364       112.853966    
   98.7999954       19.8787251      -72.0416107      -52.1628838       111.096466    
   98.9000092       19.8314915      -71.9738998      -52.1424065       110.832481    
   99.0000000       19.3074245      -71.4485855      -52.1411591       107.903633    
   99.0999985       19.9178963      -72.0677032      -52.1498108       111.315376    
   99.1999969       20.0092754      -72.1266479      -52.1173744       111.826073    
   99.3000031       19.8907413      -72.0347214      -52.1439781       111.163620    
   99.4000092       19.9780407      -72.1272354      -52.1491928       111.651505    
   99.5000000       20.0564404      -72.1882324      -52.1317902       112.089661    
   99.5999985       19.6393127      -71.7731781      -52.1338654       109.758453    
   99.6999969       19.8733139      -72.0214615      -52.1481476       111.066216    
   99.8000031       20.4796848      -72.6451340      -52.1654472       114.455055    
   99.9000015       20.2030296      -72.3734741      -52.1704445       112.908905    
   100.000000       20.0973034      -72.2865295      -52.1892242       112.318039    
