 Time (ps)Ekin (1e12erg)Epot (1e12erg)E (1e12erg)T (K)
   0.00000000       16.8912163      -68.2539673      -51.3627472       94.4001312    
  0.100000001       19.9852676      -71.3853455      -51.4000778       111.691902    
  0.200000003       21.4825859      -72.8865051      -51.4039154       120.059982    
  0.300000012       21.2345257      -72.6326828      -51.3981552       118.673645    
  0.400000006       21.0488052      -72.4475555      -51.3987503       117.635696    
  0.499999970       20.6613865      -72.0466995      -51.3853149       115.470528    
  0.600000024       20.8605137      -72.2630920      -51.4025764       116.583397    
  0.699999988       20.4764252      -71.8670578      -51.3906364       114.436829    
  0.800000012       20.6385460      -72.0494919      -51.4109459       115.342880    
  0.899999976       20.3305683      -71.7471008      -51.4165306       113.621681    
  0.999999940       20.1194592      -71.5096436      -51.3901825       112.441856    
   1.10000002       20.4129238      -71.8099289      -51.3970032       114.081940    
   1.20000005       20.6048584      -71.9899826      -51.3851242       115.154610    
   1.29999995       20.2444172      -71.6045151      -51.3600960       113.140205    
   1.39999998       20.0560760      -71.4230652      -51.3669930       112.087624    
   1.49999988       20.7522392      -72.1296082      -51.3773689       115.978287    
   1.60000002       20.6492538      -72.0269852      -51.3777351       115.402733    
   1.69999993       20.6605587      -72.0200043      -51.3594437       115.465904    
   1.79999995       20.5492325      -71.9356461      -51.3864136       114.843735    
   1.89999998       20.2077789      -71.6109772      -51.4031944       112.935455    
   1.99999988       20.6728287      -72.1004333      -51.4276085       115.534470    
   2.09999990       20.2598038      -71.6965103      -51.4367065       113.226204    
   2.20000005       20.4141922      -71.8419800      -51.4277840       114.089035    
   2.29999995       20.8854237      -72.2908173      -51.4053955       116.722610    
   2.40000010       20.6207333      -72.0054550      -51.3847237       115.243324    
   2.50000000       20.9562931      -72.3506393      -51.3943481       117.118683    
   2.59999990       20.9438190      -72.3691559      -51.4253387       117.048965    
   2.69999981       20.7144432      -72.1397781      -51.4253349       115.767052    
   2.79999995       21.0412350      -72.4755936      -51.4343605       117.593391    
   2.90000010       20.6978664      -72.1493301      -51.4514618       115.674408    
   2.99999976       20.9696484      -72.3934174      -51.4237671       117.193314    
   3.09999990       20.4298115      -71.8330078      -51.4032021       114.176315    
   3.20000005       21.0279331      -72.4168472      -51.3889160       117.519051    
   3.29999995       21.0929928      -72.4927750      -51.3997803       117.882660    
   3.39999986       20.4968338      -71.8518753      -51.3550453       114.550888    
   3.50000000       20.4154911      -71.7706146      -51.3551292       114.096291    
   3.59999990       20.9706287      -72.3630524      -51.3924255       117.198799    
   3.70000005       20.9367924      -72.3279800      -51.3911896       117.009689    
   3.79999995       20.4835300      -71.8808975      -51.3973656       114.476540    
   3.89999986       20.2185249      -71.6118240      -51.3932953       112.995506    
   3.99999976       20.1981544      -71.5811386      -51.3829803       112.881653    
   4.09999990       20.6509075      -72.0392456      -51.3883400       115.411972    
   4.19999981       20.7521629      -72.1514740      -51.3993073       115.977859    
   4.29999971       20.5642910      -71.9479599      -51.3836670       114.927895    
   4.40000010       20.0371361      -71.4109650      -51.3738289       111.981781    
   4.50000000       20.6049118      -71.9952927      -51.3903770       115.154907    
   4.59999990       20.8278790      -72.2268600      -51.3989830       116.401009    
   4.69999981       20.5687237      -71.9703979      -51.4016724       114.952667    
   4.80000019       21.1810551      -72.6096878      -51.4286308       118.374809    
   4.90000010       20.7461472      -72.1688919      -51.4227409       115.944237    
   5.00000000       19.7047195      -71.1252899      -51.4205742       110.124001    
   5.10000038       21.2820892      -72.6969757      -51.4148865       118.939453    
   5.19999981       20.6340656      -72.0599365      -51.4258690       115.317841    
   5.29999971       20.7288952      -72.1161270      -51.3872261       115.847824    
   5.39999962       20.1324825      -71.5089645      -51.3764839       112.514641    
   5.50000000       20.8976955      -72.3229218      -51.4252243       116.791191    
   5.59999990       21.0262318      -72.4864197      -51.4601898       117.509544    
   5.69999981       20.2450504      -71.6689301      -51.4238777       113.143745    
   5.80000019       20.7382736      -72.1614380      -51.4231644       115.900230    
   5.90000010       20.8088570      -72.2013779      -51.3925209       116.294693    
   5.99999952       20.8652439      -72.2753372      -51.4100952       116.609825    
   6.10000038       20.2411690      -71.6440887      -51.4029160       113.122047    
   6.19999981       20.9228306      -72.3356705      -51.4128380       116.931671    
   6.30000019       20.8800488      -72.2842865      -51.4042435       116.692574    
   6.40000010       20.2014027      -71.5780334      -51.3766327       112.899818    
   6.49999952       20.2296562      -71.6372375      -51.4075775       113.057716    
   6.59999990       20.9906139      -72.4028397      -51.4122276       117.310486    
   6.70000029       20.6776390      -72.0954514      -51.4178123       115.561356    
   6.79999971       20.9127636      -72.3383942      -51.4256287       116.875397    
   6.90000010       21.2577839      -72.6901474      -51.4323616       118.803619    
   7.00000000       20.1886311      -71.6193771      -51.4307480       112.828430    
   7.09999990       20.2068138      -71.6072693      -51.4004517       112.930054    
   7.19999981       20.4675312      -71.8890381      -51.4215050       114.387123    
   7.29999971       20.6109047      -72.0337982      -51.4228897       115.188408    
   7.40000010       20.6515656      -72.0679703      -51.4164047       115.415642    
   7.50000000       20.7165184      -72.1330643      -51.4165459       115.778648    
   7.59999990       20.2397614      -71.6463470      -51.4065857       113.114189    
   7.69999981       20.6582680      -72.0770035      -51.4187355       115.453102    
   7.79999971       20.4954319      -71.9249115      -51.4294777       114.543053    
   7.90000010       20.7622204      -72.1971970      -51.4349823       116.034058    
   7.99999952       21.0410500      -72.4737473      -51.4326973       117.592354    
   8.09999943       20.6137276      -72.0345383      -51.4208107       115.204178    
   8.19999981       20.9130421      -72.3032455      -51.3902054       116.876961    
   8.30000019       20.8980732      -72.3068237      -51.4087524       116.793304    
   8.39999962       21.1282845      -72.5262451      -51.3979607       118.079887    
   8.50000000       20.7217503      -72.1310272      -51.4092789       115.807884    
   8.59999943       20.5186634      -71.9575729      -51.4389076       114.672890    
   8.70000076       20.5595093      -71.9840698      -51.4245605       114.901169    
   8.80000019       20.2900944      -71.7058868      -51.4157867       113.395485    
   8.89999962       20.2544975      -71.6571350      -51.4026337       113.196548    
   9.00000000       20.6098995      -71.9842758      -51.3743744       115.182785    
   9.09999943       20.9779968      -72.3668289      -51.3888321       117.239975    
   9.19999981       20.9480286      -72.3414154      -51.3933907       117.072487    
   9.29999924       20.1840191      -71.5770264      -51.3930092       112.802666    
   9.39999962       20.6485825      -72.0599289      -51.4113464       115.398972    
   9.49999905       20.6899757      -72.0915222      -51.4015427       115.630310    
   9.60000038       20.3994465      -71.8408813      -51.4414330       114.006622    
   9.70000076       19.8573990      -71.2635193      -51.4061203       110.977272    
   9.80000019       20.2138538      -71.6386566      -51.4248085       112.969398    
   9.90000057       20.7749043      -72.1867523      -51.4118462       116.104950    
   10.0000000       20.9306087      -72.3516083      -51.4209976       116.975143    
   10.1000004       20.8457680      -72.2759628      -51.4301949       116.500984    
   10.2000008       20.5205097      -71.9681091      -51.4476013       114.683212    
   10.2999992       20.4619961      -71.8816681      -51.4196701       114.356201    
   10.3999996       20.4975109      -71.9119034      -51.4143944       114.554680    
   10.4999990       20.7200546      -72.1131058      -51.3930511       115.798409    
   10.5999994       20.2284164      -71.6101456      -51.3817329       113.050781    
   10.6999998       20.3120098      -71.7035980      -51.3915939       113.517967    
   10.7999992       20.7491798      -72.1546249      -51.4054413       115.961182    
   10.9000006       19.8615837      -71.2748642      -51.4132767       111.000656    
   11.0000000       20.2236671      -71.6431580      -51.4194908       113.024239    
   11.0999994       20.5076714      -71.9211044      -51.4134293       114.611465    
   11.1999998       20.0324841      -71.4656906      -51.4332047       111.955780    
   11.2999992       20.6191978      -72.0611877      -51.4419937       115.234749    
   11.3999996       20.8924046      -72.3343735      -51.4419670       116.761620    
   11.5000000       20.2566071      -71.6943130      -51.4377022       113.208336    
   11.6000004       20.5052738      -71.9443893      -51.4391136       114.598068    
   11.7000008       20.4265175      -71.8620453      -51.4355240       114.157921    
   11.8000002       20.7775021      -72.2097015      -51.4321976       116.119469    
   11.8999987       20.7051754      -72.1208267      -51.4156570       115.715256    
   11.9999990       20.5112705      -71.9114914      -51.4002190       114.631577    
   12.0999994       21.2232208      -72.6313248      -51.4081039       118.610458    
   12.2000008       20.7369843      -72.1396713      -51.4026833       115.893028    
   12.3000011       20.1508045      -71.5614853      -51.4106827       112.617035    
   12.3999996       19.7668591      -71.1829834      -51.4161224       110.471275    
   12.5000000       20.5853901      -72.0001831      -51.4147949       115.045807    
   12.6000004       20.6546078      -72.0689087      -51.4142952       115.432648    
   12.6999998       20.1489620      -71.5605850      -51.4116211       112.606735    
   12.8000002       20.9176159      -72.3303452      -51.4127274       116.902527    
   12.8999987       21.0927811      -72.5065460      -51.4137688       117.881462    
   12.9999990       21.0489140      -72.4693298      -51.4204178       117.636314    
   13.0999994       20.0218754      -71.4357529      -51.4138794       111.896484    
   13.1999998       20.2711315      -71.6869583      -51.4158211       113.289513    
   13.3000002       20.9036446      -72.3328323      -51.4291878       116.824440    
   13.4000006       21.0859032      -72.5237808      -51.4378738       117.843033    
   13.4999990       20.7528610      -72.1727905      -51.4199257       115.981758    
   13.5999994       20.8516254      -72.2413712      -51.3897476       116.533722    
   13.6999998       21.1996117      -72.5994644      -51.3998489       118.478516    
   13.8000002       20.2186642      -71.6172028      -51.3985405       112.996277    
   13.9000006       20.3844910      -71.7644043      -51.3799133       113.923042    
   14.0000000       20.5378418      -71.9553528      -51.4175072       114.780075    
   14.0999994       20.5788822      -72.0050201      -51.4261360       115.009438    
   14.1999998       20.7161446      -72.1428146      -51.4266701       115.776550    
   14.3000002       20.7979736      -72.2350616      -51.4370842       116.233879    
   14.3999996       21.5847626      -73.0348282      -51.4500656       120.631004    
   14.4999990       20.9287777      -72.3885117      -51.4597321       116.964905    
   14.5999994       21.1400051      -72.5960922      -51.4560814       118.145386    
   14.6999989       20.8914280      -72.3317337      -51.4403038       116.756165    
   14.8000002       20.0069580      -71.4514542      -51.4444962       111.813118    
   14.9000006       21.1763763      -72.6205673      -51.4441910       118.348663    
   15.0000000       21.0078182      -72.4225998      -51.4147835       117.406639    
   15.0999994       20.1655617      -71.5829926      -51.4174309       112.699509    
   15.1999998       20.5036812      -71.9373322      -51.4336472       114.589157    
   15.2999992       20.0946712      -71.5046616      -51.4099922       112.303322    
   15.3999996       20.3947163      -71.7808762      -51.3861580       113.980179    
   15.5000000       20.3753662      -71.7724991      -51.3971291       113.872047    
   15.5999994       20.6759796      -72.0866165      -51.4106331       115.552086    
   15.6999998       20.8404102      -72.2391815      -51.3987656       116.471046    
   15.8000002       20.1460228      -71.5474167      -51.4013901       112.590309    
   15.9000006       20.6712723      -72.0756683      -51.4043961       115.525780    
   15.9999990       20.6965923      -72.0969315      -51.4003410       115.667282    
   16.1000004       20.7820187      -72.1808624      -51.3988457       116.144707    
   16.1999989       20.4423141      -71.8670197      -51.4247055       114.246201    
   16.2999992       20.7430630      -72.1646652      -51.4216003       115.927002    
   16.3999996       20.2497597      -71.6936035      -51.4438438       113.170067    
   16.5000000       20.9456768      -72.3721390      -51.4264603       117.059349    
   16.6000004       20.6142712      -72.0370255      -51.4227524       115.207214    
   16.7000008       20.3721256      -71.8161240      -51.4439964       113.853935    
   16.7999992       20.3562317      -71.7732468      -51.4170151       113.765114    
   16.8999996       20.8245106      -72.2353287      -51.4108200       116.382179    
   17.0000000       21.0930576      -72.5143585      -51.4213028       117.883018    
   17.0999985       20.9893742      -72.4085007      -51.4191284       117.303551    
   17.1999989       20.3100929      -71.7308197      -51.4207268       113.507248    
   17.3000011       20.4586506      -71.8559494      -51.3973045       114.337494    
   17.4000015       20.8825378      -72.2836075      -51.4010696       116.706474    
   17.5000000       20.8669224      -72.2779236      -51.4110031       116.619209    
   17.6000004       20.5610294      -71.9642944      -51.4032631       114.909668    
   17.6999989       20.8583298      -72.2927246      -51.4343987       116.571182    
   17.7999992       21.2358532      -72.6738892      -51.4380341       118.681061    
   17.8999996       20.7223969      -72.1174698      -51.3950768       115.811501    
   18.0000000       20.6520653      -72.0588837      -51.4068222       115.418434    
   18.1000004       20.9519348      -72.3578415      -51.4059067       117.094322    
   18.1999989       20.8405132      -72.2546692      -51.4141541       116.471619    
   18.3000011       20.1571274      -71.5681229      -51.4109917       112.652374    
   18.3999996       20.8298626      -72.2664948      -51.4366379       116.412094    
   18.5000000       21.3757839      -72.8257904      -51.4500122       119.463089    
   18.5999985       20.6543789      -72.0633698      -51.4089890       115.431366    
   18.6999989       20.2336121      -71.6362991      -51.4026871       113.079819    
   18.7999992       20.4136925      -71.8175659      -51.4038734       114.086243    
   18.8999996       20.2878151      -71.6990204      -51.4112091       113.382744    
   18.9999981       20.2666836      -71.6886826      -51.4219971       113.264648    
   19.0999985       20.5386982      -71.9521484      -51.4134445       114.784866    
   19.2000008       20.6459770      -72.0780563      -51.4320793       115.384415    
   19.3000011       20.6273098      -72.0739746      -51.4466591       115.280090    
   19.4000015       20.0974369      -71.5500946      -51.4526558       112.318779    
   19.5000019       20.1670761      -71.6071930      -51.4401169       112.707970    
   19.6000004       20.0163174      -71.4520798      -51.4357643       111.865417    
   19.7000008       20.4260921      -71.8753738      -51.4492836       114.155533    
   19.8000011       20.8934917      -72.3363876      -51.4428940       116.767700    
   19.8999996       20.9024525      -72.3588791      -51.4564285       116.817772    
   20.0000000       20.5719528      -71.9950180      -51.4230652       114.970703    
   20.0999985       21.3475475      -72.7728882      -51.4253426       119.305283    
   20.2000008       20.6708164      -72.0877380      -51.4169235       115.523224    
   20.2999992       21.0006313      -72.4020767      -51.4014473       117.366470    
   20.4000015       21.0961361      -72.5101776      -51.4140434       117.900215    
   20.5000000       20.8898411      -72.3125229      -51.4226837       116.747299    
   20.5999985       20.8327274      -72.2621384      -51.4294128       116.428108    
   20.7000008       21.0359898      -72.4790192      -51.4430237       117.564087    
   20.7999992       20.4033298      -71.8425217      -51.4391937       114.028328    
   20.9000015       20.7548828      -72.1859894      -51.4311104       115.993050    
   20.9999981       20.1375351      -71.5731583      -51.4356194       112.542877    
   21.0999985       20.6992493      -72.1388321      -51.4395828       115.682137    
   21.1999989       20.6441593      -72.0844650      -51.4403038       115.374252    
   21.2999973       20.8295040      -72.2933960      -51.4638901       116.410095    
   21.3999996       20.8781319      -72.3248520      -51.4467201       116.681862    
   21.4999981       20.4585629      -71.8911209      -51.4325523       114.337013    
   21.5999985       20.6207695      -72.0727692      -51.4520035       115.243530    
   21.6999989       20.0896301      -71.5215607      -51.4319267       112.275146    
   21.8000011       20.2464199      -71.6808090      -51.4343872       113.151398    
   21.9000015       20.7347965      -72.1479111      -51.4131165       115.880791    
   22.0000000       20.2780342      -71.6714935      -51.3934593       113.328087    
   22.1000004       20.6007938      -71.9763489      -51.3755569       115.131897    
   22.1999989       20.2801456      -71.6513062      -51.3711624       113.339882    
   22.2999992       20.9240627      -72.3194733      -51.3954163       116.938553    
   22.3999996       20.5792046      -71.9770126      -51.3978081       115.011238    
   22.5000000       20.2917290      -71.6656189      -51.3738899       113.404617    
   22.5999985       20.8362522      -72.2249222      -51.3886681       116.447807    
   22.7000008       21.0128670      -72.4110870      -51.3982201       117.434853    
   22.7999992       20.3047352      -71.6956482      -51.3909111       113.477310    
   22.8999996       20.8987675      -72.2967911      -51.3980255       116.797180    
   23.0000000       20.0123138      -71.4194870      -51.4071770       111.843048    
   23.1000004       20.7012234      -72.1057663      -51.4045410       115.693169    
   23.2000008       21.1660671      -72.6032715      -51.4372025       118.291046    
   23.2999973       19.9723339      -71.4007568      -51.4284248       111.619614    
   23.4000015       20.2863789      -71.7301712      -51.4437943       113.374718    
   23.4999981       20.6591625      -72.0743179      -51.4151573       115.458099    
   23.6000004       20.4100723      -71.8345108      -51.4244385       114.066010    
   23.6999989       20.5978336      -72.0389252      -51.4410858       115.115356    
   23.7999973       20.4994659      -71.9380417      -51.4385719       114.565605    
   23.8999996       20.5632153      -71.9807053      -51.4174881       114.921883    
   23.9999981       20.8301163      -72.2379913      -51.4078789       116.413506    
   24.1000004       20.9793262      -72.3974457      -51.4181213       117.247398    
   24.1999989       20.5742035      -71.9955902      -51.4213867       114.983292    
   24.2999992       20.6879559      -72.0984192      -51.4104576       115.619019    
   24.4000015       20.9337330      -72.3410873      -51.4073486       116.992599    
   24.5000000       20.6868439      -72.1032410      -51.4163971       115.612808    
   24.6000023       20.8458748      -72.2777328      -51.4318581       116.501587    
   24.6999989       20.8815403      -72.2966309      -51.4150925       116.700912    
   24.7999992       20.8788300      -72.2746582      -51.3958282       116.685760    
   24.8999996       20.6199780      -72.0322037      -51.4122276       115.239113    
   25.0000000       20.4469242      -71.8513031      -51.4043808       114.271957    
   25.1000004       21.2351818      -72.6607971      -51.4256210       118.677307    
   25.2000008       20.4369984      -71.8699188      -51.4329185       114.216484    
   25.2999992       21.1373997      -72.5804443      -51.4430428       118.130829    
   25.3999996       20.9787998      -72.4086227      -51.4298172       117.244461    
   25.5000000       20.5024490      -71.9123230      -51.4098778       114.582275    
   25.6000004       20.6131401      -72.0311661      -51.4180260       115.200890    
   25.7000008       20.1723995      -71.5939560      -51.4215546       112.737724    
   25.7999973       20.8203602      -72.2527847      -51.4324265       116.358994    
   25.8999996       20.7062645      -72.1079254      -51.4016609       115.721344    
   25.9999981       20.0007534      -71.3921585      -51.3914032       111.778435    
   26.1000004       20.7069263      -72.1193008      -51.4123764       115.725037    
   26.1999989       21.1915531      -72.6078110      -51.4162521       118.433479    
   26.2999973       20.8920784      -72.3106613      -51.4185829       116.759796    
   26.3999996       20.5887833      -72.0029449      -51.4141617       115.064774    
   26.4999981       20.2444000      -71.6708069      -51.4264069       113.140114    
   26.6000004       21.2864666      -72.6851273      -51.3986626       118.963928    
   26.6999989       20.9704590      -72.3805847      -51.4101257       117.197853    
   26.8000011       20.2218571      -71.6091843      -51.3873253       113.014130    
   26.9000015       20.3417702      -71.7455139      -51.4037437       113.684288    
   26.9999981       20.3374233      -71.7331314      -51.3957100       113.659988    
   27.1000004       20.5079556      -71.9406586      -51.4327049       114.613045    
   27.1999989       20.2471275      -71.6681976      -51.4210739       113.155350    
   27.3000011       20.8313999      -72.2468719      -51.4154739       116.420677    
   27.3999996       20.5217667      -71.9369278      -51.4151649       114.690231    
   27.5000000       20.6321735      -72.0459213      -51.4137497       115.307266    
   27.6000004       20.3991241      -71.8311234      -51.4319992       114.004829    
   27.7000008       20.9995594      -72.4188995      -51.4193382       117.360481    
   27.8000011       20.3878536      -71.7933731      -51.4055252       113.941826    
   27.8999996       20.8355217      -72.2681046      -51.4325790       116.443726    
   28.0000000       20.9786530      -72.4061661      -51.4275131       117.243637    
   28.1000004       20.6819782      -72.1029739      -51.4209976       115.585617    
   28.1999989       20.2044640      -71.6167145      -51.4122505       112.916916    
   28.2999992       20.3955841      -71.8050308      -51.4094505       113.985039    
   28.3999996       20.8124294      -72.2345276      -51.4221039       116.314667    
   28.4999981       20.6136017      -72.0354156      -51.4218102       115.203468    
   28.6000004       20.4493217      -71.8491287      -51.3998070       114.285355    
   28.6999989       20.0373955      -71.4146347      -51.3772430       111.983223    
   28.7999992       20.4265690      -71.8227768      -51.3962059       114.158195    
   28.8999996       20.8212051      -72.2344437      -51.4132347       116.363716    
   28.9999981       21.2433491      -72.6586761      -51.4153290       118.722954    
   29.1000004       20.7172012      -72.1319809      -51.4147835       115.782455    
   29.1999989       20.8119640      -72.2257004      -51.4137344       116.312073    
   29.3000011       21.2487030      -72.7100296      -51.4613266       118.752869    
   29.3999977       21.2781639      -72.7245331      -51.4463730       118.917519    
   29.4999981       20.7638912      -72.1769409      -51.4130554       116.043396    
   29.6000004       20.8704643      -72.2783356      -51.4078712       116.639008    
   29.6999989       20.9335537      -72.3400116      -51.4064560       116.991592    
   29.8000011       20.0088482      -71.4271164      -51.4182663       111.823685    
   29.8999996       20.5602913      -71.9766693      -51.4163780       114.905540    
   30.0000000       21.2903633      -72.6980972      -51.4077339       118.985703    
   30.1000004       20.6610165      -72.0505295      -51.3895187       115.468460    
   30.1999989       20.9122238      -72.2993088      -51.3870888       116.872383    
   30.3000011       20.7265320      -72.1391525      -51.4126244       115.834610    
   30.3999996       21.2815723      -72.6960220      -51.4144478       118.936569    
   30.5000000       20.6038456      -72.0169678      -51.4131241       115.148949    
   30.5999985       20.4819069      -71.8594437      -51.3775330       114.467476    
   30.6999989       20.4522419      -71.8669128      -51.4146690       114.301682    
   30.7999992       21.0851250      -72.5216522      -51.4365273       117.838684    
   30.8999996       20.8730907      -72.2970123      -51.4239235       116.653687    
   31.0000000       20.8013878      -72.2120590      -51.4106674       116.252960    
   31.0999985       20.6718121      -72.0742035      -51.4023895       115.528793    
   31.1999989       20.4515667      -71.8239365      -51.3723679       114.297913    
   31.2999992       20.7530479      -72.1421356      -51.3890915       115.982803    
   31.3999996       20.2279530      -71.6174927      -51.3895454       113.048195    
   31.5000000       20.4589901      -71.8660278      -51.4070396       114.339394    
   31.6000004       20.4506550      -71.8368073      -51.3861504       114.292809    
   31.6999969       20.5476151      -71.9184799      -51.3708611       114.834694    
   31.8000011       20.1728401      -71.5767517      -51.4039078       112.740189    
   31.8999977       20.6572475      -72.0453568      -51.3881073       115.447395    
   31.9999981       20.9733906      -72.3747177      -51.4013290       117.214233    
   32.1000023       21.2475166      -72.6572037      -51.4096870       118.746246    
   32.2000008       20.8772087      -72.2767487      -51.3995361       116.676697    
   32.3000031       20.5744839      -71.9587860      -51.3843040       114.984848    
   32.3999977       20.9959240      -72.4059677      -51.4100456       117.340164    
   32.5000038       20.0996933      -71.4986801      -51.3989906       112.331383    
   32.5999985       20.3865223      -71.7977753      -51.4112549       113.934395    
   32.6999969       20.7919636      -72.2091751      -51.4172096       116.200287    
   32.7999992       20.1341171      -71.5233841      -51.3892670       112.523773    
   32.8999977       20.7866497      -72.1846619      -51.3980103       116.170593    
   33.0000000       20.5521107      -71.9399490      -51.3878365       114.859818    
   33.0999985       20.3337250      -71.7352676      -51.4015465       113.639320    
   33.2000008       19.8187199      -71.2085037      -51.3897858       110.761108    
   33.2999992       20.9306793      -72.3698807      -51.4392014       116.975525    
   33.4000015       19.6510010      -71.0666428      -51.4156418       109.823776    
   33.5000000       19.6997395      -71.1094589      -51.4097176       110.096169    
   33.5999985       21.0586205      -72.4525833      -51.3939667       117.690552    
   33.6999969       20.4646530      -71.8611374      -51.3964844       114.371040    
   33.7999992       20.1444721      -71.5335159      -51.3890419       112.581650    
   33.8999977       20.7975483      -72.1901245      -51.3925743       116.231499    
   34.0000000       20.4637775      -71.8308716      -51.3670998       114.366158    
   34.0999985       20.5819988      -71.9684143      -51.3864174       115.026863    
   34.1999969       20.1436043      -71.5292740      -51.3856735       112.576790    
   34.2999992       20.0874920      -71.4779892      -51.3904953       112.263199    
   34.3999977       20.5678463      -71.9666443      -51.3987999       114.947762    
   34.5000000       20.4580173      -71.8415985      -51.3835793       114.333954    
   34.6000023       20.3528423      -71.7468872      -51.3940430       113.746170    
   34.7000008       20.9043865      -72.3232651      -51.4188805       116.828583    
   34.8000031       20.5204506      -71.9354401      -51.4149933       114.682877    
   34.8999977       21.0860844      -72.4772644      -51.3911819       117.844040    
   35.0000000       20.3325863      -71.7312241      -51.3986397       113.632957    
   35.0999985       20.7355156      -72.1294861      -51.3939667       115.884819    
   35.2000008       20.8503094      -72.2470093      -51.3966980       116.526367    
   35.2999992       20.8359222      -72.2490921      -51.4131660       116.445969    
   35.3999977       20.5684223      -71.9578171      -51.3893929       114.950981    
   35.5000000       20.1678581      -71.5605316      -51.3926735       112.712341    
   35.5999985       20.1540852      -71.5501785      -51.3960953       112.635368    
   35.7000008       20.5708523      -71.9745712      -51.4037209       114.964561    
   35.7999992       20.1378803      -71.5401840      -51.4023018       112.544807    
   35.9000015       20.5360241      -71.9318619      -51.3958397       114.769913    
   36.0000000       20.5154037      -71.9250107      -51.4096107       114.654671    
   36.0999985       20.1300278      -71.5290756      -51.3990440       112.500923    
   36.2000008       20.4325123      -71.8471527      -51.4146385       114.191422    
   36.2999992       20.1285973      -71.5526581      -51.4240608       112.492920    
   36.3999977       21.1252308      -72.5640793      -51.4388504       118.062820    
   36.5000000       20.7869511      -72.2428360      -51.4558830       116.172279    
   36.6000023       20.6455669      -72.0576706      -51.4121017       115.382118    
   36.6999969       20.4642372      -71.8540497      -51.3898125       114.368721    
   36.7999992       21.0971889      -72.5064774      -51.4092941       117.906097    
   36.8999977       20.2121334      -71.6159821      -51.4038506       112.959785    
   37.0000000       20.8004932      -72.1940460      -51.3935547       116.247955    
   37.0999985       21.0893402      -72.4916382      -51.4022980       117.862244    
   37.1999969       20.7872562      -72.1593170      -51.3720665       116.173973    
   37.2999992       20.3656349      -71.7140121      -51.3483772       113.817657    
   37.3999977       20.7450390      -72.1358871      -51.3908501       115.938042    
   37.5000000       21.1502609      -72.5508575      -51.4005928       118.202705    
   37.5999985       20.3317146      -71.7220612      -51.3903427       113.628090    
   37.6999969       20.9596519      -72.3652725      -51.4056244       117.137451    
   37.7999992       21.0571957      -72.4624710      -51.4052773       117.682594    
   37.8999977       20.4011326      -71.8200226      -51.4188881       114.016045    
   37.9999962       20.3993206      -71.8330994      -51.4337807       114.005920    
   38.0999985       20.6898499      -72.1266251      -51.4367714       115.629608    
   38.1999969       20.5008526      -71.9017715      -51.4009171       114.573349    
   38.3000031       20.9803028      -72.3785782      -51.3982735       117.252861    
   38.4000015       20.3989830      -71.7820129      -51.3830299       114.004028    
   38.5000038       20.2096138      -71.5938034      -51.3841934       112.945702    
   38.6000023       21.1841602      -72.5857391      -51.4015846       118.392159    
   38.6999969       20.4242306      -71.8237762      -51.3995438       114.145134    
   38.8000031       21.2347393      -72.6397171      -51.4049797       118.674835    
   38.9000015       20.1559563      -71.5814743      -51.4255180       112.645828    
   39.0000038       20.6537590      -72.0866165      -51.4328537       115.427910    
   39.0999985       20.9634953      -72.3842773      -51.4207840       117.158928    
   39.2000008       20.7309113      -72.1571960      -51.4262848       115.859085    
   39.3000031       21.2390289      -72.6759644      -51.4369316       118.698807    
   39.4000015       21.2228889      -72.6489868      -51.4260941       118.608612    
   39.5000000       20.6812019      -72.0943604      -51.4131584       115.581268    
   39.6000023       20.9278183      -72.3344116      -51.4065895       116.959541    
   39.7000008       20.5626011      -71.9788132      -51.4162102       114.918449    
   39.7999992       20.6055584      -72.0463409      -51.4407806       115.158524    
   39.9000015       20.9568653      -72.4001007      -51.4432335       117.121872    
   40.0000000       19.9391251      -71.3677444      -51.4286194       111.434021    
   40.0999985       20.3513222      -71.7992401      -51.4479141       113.737671    
   40.1999969       21.2603302      -72.6992264      -51.4388962       118.817856    
   40.3000031       20.4181099      -71.8466492      -51.4285355       114.110924    
   40.4000015       20.7085304      -72.1543121      -51.4457779       115.734001    
   40.5000000       20.9319534      -72.3633270      -51.4313698       116.982651    
   40.5999985       20.5024757      -71.9389267      -51.4364510       114.582428    
   40.7000008       21.3405571      -72.7749023      -51.4343452       119.266220    
   40.8000031       20.9547997      -72.3583221      -51.4035187       117.110336    
   40.8999977       20.3984432      -71.8031082      -51.4046669       114.001015    
   41.0000000       20.5202351      -71.9128418      -51.3926086       114.681671    
   41.0999985       20.3365040      -71.7329712      -51.3964691       113.654854    
   41.1999969       20.8948174      -72.3203278      -51.4255142       116.775108    
   41.2999992       20.6440926      -72.0515442      -51.4074554       115.373878    
   41.4000015       21.0156746      -72.4262695      -51.4105911       117.450546    
   41.5000000       20.4973927      -71.8883591      -51.3909645       114.554008    
   41.5999985       21.0351791      -72.4057007      -51.3705177       117.559547    
   41.6999969       19.9916973      -71.3750381      -51.3833427       111.727829    
   41.8000031       21.0012970      -72.4416809      -51.4403877       117.370186    
   41.8999977       20.6392307      -72.0742188      -51.4349861       115.346710    
   41.9999962       20.6306133      -72.0584488      -51.4278336       115.298546    
   42.0999985       20.4952259      -71.9149246      -51.4197006       114.541901    
   42.1999969       20.4643631      -71.8981781      -51.4338188       114.369423    
   42.2999992       20.6337357      -72.0339127      -51.4001770       115.316002    
   42.3999977       20.3360615      -71.7238312      -51.3877678       113.652382    
   42.5000000       20.2158298      -71.5988922      -51.3830643       112.980446    
   42.5999947       20.9133339      -72.3200455      -51.4067116       116.878586    
   42.6999969       20.6722298      -72.0714340      -51.3992043       115.531128    
   42.7999992       20.1122551      -71.5011902      -51.3889313       112.401596    
   42.9000015       20.5568409      -71.9584122      -51.4015694       114.886253    
   42.9999962       21.0177002      -72.4388580      -51.4211578       117.461861    
   43.0999947       20.4936333      -71.9155045      -51.4218750       114.533005    
   43.1999969       20.1546574      -71.5397034      -51.3850479       112.638565    
   43.2999992       21.1287384      -72.5272217      -51.3984833       118.082428    
   43.3999977       20.5300732      -71.9266205      -51.3965454       114.736656    
   43.4999962       21.1223850      -72.5318298      -51.4094429       118.046921    
   43.6000023       20.6479855      -72.0256195      -51.3776398       115.395630    
   43.6999969       20.5571785      -71.9539413      -51.3967628       114.888145    
   43.8000031       20.2878971      -71.6759033      -51.3880043       113.383209    
   43.9000015       20.5844612      -71.9875259      -51.4030647       115.040619    
   44.0000000       20.6883392      -72.0873032      -51.3989601       115.621162    
   44.0999985       21.1085148      -72.5088577      -51.4003448       117.969398    
   44.2000008       20.7227879      -72.1200714      -51.3972855       115.813683    
   44.3000031       20.5801716      -71.9811325      -51.4009666       115.016640    
   44.3999977       20.6882763      -72.1084290      -51.4201508       115.620804    
   44.5000000       20.6361256      -72.0606537      -51.4245300       115.329346    
   44.5999985       20.9853516      -72.4216690      -51.4363213       117.281082    
   44.7000046       20.4024620      -71.8301773      -51.4277153       114.023476    
   44.7999992       20.1015530      -71.5054703      -51.4039154       112.341782    
   44.9000015       20.6725922      -72.0971298      -51.4245338       115.533157    
   45.0000000       20.3282585      -71.7625275      -51.4342651       113.608772    
   45.0999985       20.1906548      -71.6260605      -51.4354057       112.839745    
   45.1999969       20.2544727      -71.6814194      -51.4269447       113.196411    
   45.3000031       20.8782635      -72.3107300      -51.4324684       116.682587    
   45.4000015       20.2219200      -71.6576920      -51.4357719       113.014473    
   45.4999962       21.2143898      -72.6458282      -51.4314346       118.561104    
   45.5999985       20.5471153      -71.9906769      -51.4435616       114.831902    
   45.7000046       20.5912762      -72.0130310      -51.4217567       115.078705    
   45.7999992       20.4137840      -71.8461227      -51.4323387       114.086746    
   45.8999977       20.3728962      -71.7849274      -51.4120255       113.858238    
   46.0000000       20.4716911      -71.8891983      -51.4175072       114.410370    
   46.0999985       21.0665283      -72.4733734      -51.4068451       117.734749    
   46.2000008       20.8047199      -72.2077789      -51.4030609       116.271584    
   46.2999992       20.2499237      -71.6736145      -51.4236946       113.170982    
   46.4000015       20.4530697      -71.8614731      -51.4084053       114.306305    
   46.5000000       20.5543766      -71.9676743      -51.4132957       114.872475    
   46.5999947       20.3727360      -71.7794952      -51.4067612       113.857346    
   46.7000008       20.7101021      -72.1126404      -51.4025421       115.742790    
   46.8000031       20.8503265      -72.2621231      -51.4117928       116.526459    
   46.8999977       20.7443867      -72.1168289      -51.3724403       115.934395    
   46.9999962       20.7031078      -72.0894165      -51.3863106       115.703697    
   47.0999985       20.8581562      -72.2338257      -51.3756676       116.570213    
   47.2000008       20.0572491      -71.4248352      -51.3675919       112.094177    
   47.2999992       20.1302528      -71.4877930      -51.3575439       112.502182    
   47.3999977       20.6614723      -72.0629349      -51.4014664       115.471008    
   47.5000000       20.8932247      -72.3050156      -51.4117928       116.766205    
   47.5999947       21.0744629      -72.5021057      -51.4276466       117.779099    
   47.7000008       20.4016533      -71.7819290      -51.3802757       114.018959    
   47.7999992       20.6936665      -72.0778809      -51.3842087       115.650940    
   47.9000015       20.5113792      -71.8853912      -51.3740158       114.632179    
   47.9999962       21.3423538      -72.7482605      -51.4059067       119.276253    
   48.0999947       20.6645355      -72.0461273      -51.3815880       115.488129    
   48.2000008       20.2031479      -71.6054611      -51.4023094       112.909569    
   48.2999992       20.2093697      -71.5891190      -51.3797493       112.944344    
   48.3999977       20.0821743      -71.4617081      -51.3795319       112.233475    
   48.4999962       20.2854252      -71.6815109      -51.3960800       113.369385    
   48.5999985       20.3010082      -71.6779861      -51.3769836       113.456474    
   48.7000008       20.1223888      -71.5321655      -51.4097710       112.458229    
   48.8000031       20.8256607      -72.2547531      -51.4290886       116.388611    
   48.9000015       20.7319183      -72.1430588      -51.4111443       115.864708    
   49.0000000       20.5586090      -71.9493027      -51.3906898       114.896133    
   49.0999985       20.4562492      -71.8298798      -51.3736343       114.324081    
   49.2000046       20.4392738      -71.8250198      -51.3857422       114.229202    
   49.3000031       20.6843300      -72.0640182      -51.3796921       115.598763    
   49.3999977       20.5377979      -71.9378738      -51.4000740       114.779823    
   49.5000000       20.5888863      -72.0007095      -51.4118271       115.065346    
   49.5999985       20.5781193      -72.0052567      -51.4271355       115.005173    
   49.7000046       20.3223801      -71.7218399      -51.3994560       113.575912    
   49.7999992       20.7711391      -72.2153854      -51.4442444       116.083908    
   49.9000015       20.9211922      -72.3383331      -51.4171371       116.922508    
   50.0000000       20.1097298      -71.4936066      -51.3838806       112.387482    
   50.0999985       20.3948631      -71.7798157      -51.3849564       113.981003    
   50.2000008       20.4590034      -71.8513947      -51.3923912       114.339470    
   50.3000031       20.9255371      -72.3067932      -51.3812523       116.946793    
   50.4000015       21.1628056      -72.5714798      -51.4086761       118.272820    
   50.4999962       20.6578808      -72.0499039      -51.3920212       115.450935    
   50.5999985       21.2269287      -72.6216965      -51.3947716       118.631180    
   50.7000008       20.6360188      -72.0245819      -51.3885612       115.328758    
   50.7999992       20.4524117      -71.8354950      -51.3830833       114.302635    
   50.8999977       20.2400093      -71.6392746      -51.3992653       113.115578    
   51.0000000       20.2182617      -71.6160431      -51.3977852       112.994026    
   51.0999985       20.1614952      -71.5269241      -51.3654251       112.676781    
   51.2000008       19.6274700      -71.0121994      -51.3847313       109.692268    
   51.2999992       20.0052452      -71.3847809      -51.3795319       111.803551    
   51.4000015       20.8920631      -72.3053818      -51.4133186       116.759720    
   51.4999962       20.8995552      -72.3080444      -51.4084892       116.801582    
   51.5999947       20.6453037      -72.0513535      -51.4060440       115.380646    
   51.7000008       20.1085567      -71.5194702      -51.4109154       112.380928    
   51.7999992       20.3893051      -71.8084183      -51.4191170       113.949944    
   51.8999977       20.7437096      -72.1588898      -51.4151764       115.930618    
   51.9999962       20.2683048      -71.6857758      -51.4174690       113.273705    
   52.0999985       20.5780106      -71.9947205      -51.4167099       115.004562    
   52.2000008       20.2408638      -71.6449738      -51.4041100       113.120354    
   52.2999992       20.5707932      -71.9867554      -51.4159622       114.964233    
   52.3999977       20.7151642      -72.1300049      -51.4148369       115.771080    
   52.5000000       20.4479351      -71.8677673      -51.4198341       114.277611    
   52.5999947       20.3136234      -71.6795120      -51.3658829       113.526985    
   52.6999969       20.6202812      -71.9911346      -51.3708534       115.240807    
   52.7999992       20.2106152      -71.5856781      -51.3750572       112.951302    
   52.8999977       20.9931431      -72.3716507      -51.3785057       117.324623    
   52.9999962       21.0849495      -72.4633026      -51.3783493       117.837700    
   53.0999947       20.2026234      -71.5990372      -51.3964157       112.906631    
   53.2000008       19.8498516      -71.2286758      -51.3788261       110.935089    
   53.2999954       20.2645397      -71.6560059      -51.3914680       113.252670    
   53.3999977       20.9743614      -72.3866043      -51.4122429       117.219658    
   53.4999962       20.7173576      -72.1344223      -51.4170647       115.783340    
   53.6000023       20.6990490      -72.1370773      -51.4380264       115.681007    
   53.6999969       21.0497475      -72.4862518      -51.4365082       117.640961    
   53.8000031       20.8841801      -72.3100967      -51.4259148       116.715660    
   53.9000015       20.8882217      -72.2898788      -51.4016533       116.738243    
   53.9999962       20.8862934      -72.3125916      -51.4263000       116.727478    
   54.1000023       21.0624428      -72.5121384      -51.4496918       117.711922    
   54.2000008       21.1923962      -72.6566772      -51.4642830       118.438194    
   54.3000031       21.0811119      -72.5397415      -51.4586334       117.816254    
   54.3999977       21.2039566      -72.6562500      -51.4522934       118.502800    
   54.5000000       20.4420776      -71.8651047      -51.4230270       114.244873    
   54.6000023       20.7065563      -72.1346741      -51.4281197       115.722969    
   54.7000008       21.0277634      -72.4357376      -51.4079742       117.518105    
   54.7999992       21.0451050      -72.4379272      -51.3928261       117.615021    
   54.9000015       21.4457245      -72.8428802      -51.3971519       119.853973    
   55.0000000       19.9574928      -71.3221817      -51.3646889       111.536667    
   55.1000023       20.3748779      -71.7713242      -51.3964462       113.869324    
   55.2000008       20.5404339      -71.9471970      -51.4067650       114.794563    
   55.2999992       20.8143044      -72.2086716      -51.3943634       116.325150    
   55.4000015       20.0622654      -71.4365540      -51.3742867       112.122215    
   55.4999962       20.5186729      -71.9004288      -51.3817558       114.672951    
   55.6000023       20.8641682      -72.2403870      -51.3762207       116.603821    
   55.7000008       20.4256687      -71.7995148      -51.3738480       114.153168    
   55.7999992       20.0387783      -71.4057617      -51.3669853       111.990952    
   55.8999977       20.9167957      -72.2982101      -51.3814125       116.897942    
   56.0000000       21.0000153      -72.4015503      -51.4015350       117.363029    
   56.1000023       20.9197941      -72.3239059      -51.4041100       116.914696    
   56.2000008       20.7550163      -72.1589584      -51.4039421       115.993797    
   56.2999992       20.4782200      -71.8475800      -51.3693581       114.446861    
   56.3999977       20.3093338      -71.6778412      -51.3685112       113.503014    
   56.4999962       20.3710346      -71.7476501      -51.3766136       113.847839    
   56.5999985       20.3543224      -71.7367401      -51.3824196       113.754440    
   56.7000008       20.0619087      -71.4396820      -51.3777695       112.120224    
   56.7999992       20.4355679      -71.7722473      -51.3366776       114.208496    
   56.8999977       20.3903427      -71.7432404      -51.3529015       113.955742    
   56.9999962       20.3127232      -71.6890106      -51.3762856       113.521957    
   57.1000023       20.5710258      -71.9644165      -51.3933907       114.965530    
   57.2000008       21.2711639      -72.6876144      -51.4164467       118.878395    
   57.2999992       20.5178299      -71.9173813      -51.3995514       114.668236    
   57.3999977       20.8370571      -72.2357712      -51.3987160       116.452309    
   57.4999962       20.2713680      -71.6618652      -51.3904953       113.290825    
   57.5999985       19.8708000      -71.2434311      -51.3726273       111.052170    
   57.6999969       20.4058323      -71.7968063      -51.3909721       114.042313    
   57.7999992       20.1981258      -71.6041565      -51.4060249       112.881500    
   57.8999977       20.5136089      -71.9154053      -51.4017906       114.644646    
   57.9999962       20.3217468      -71.7370224      -51.4152756       113.572380    
   58.0999985       20.4707470      -71.8940430      -51.4232979       114.405098    
   58.2000008       20.2564850      -71.6818314      -51.4253502       113.207657    
   58.2999954       20.6783562      -72.0893936      -51.4110413       115.565369    
   58.3999977       21.0995998      -72.5074539      -51.4078484       117.919579    
   58.4999962       20.4406185      -71.8420410      -51.4014206       114.236717    
   58.6000023       21.3411102      -72.7645874      -51.4234772       119.269302    
   58.6999969       20.4128056      -71.8318481      -51.4190407       114.081284    
   58.7999954       20.2243538      -71.6514740      -51.4271240       113.028076    
   58.9000015       21.1102257      -72.5312729      -51.4210472       117.978966    
   58.9999962       20.7237759      -72.1541748      -51.4304008       115.819199    
   59.1000023       20.6581402      -72.1065140      -51.4483719       115.452385    
   59.2000008       20.7177677      -72.1528778      -51.4351120       115.785629    
   59.3000031       20.3137512      -71.7252884      -51.4115334       113.527695    
   59.3999977       20.9360847      -72.3618469      -51.4257584       117.005737    
   59.5000000       21.1949005      -72.6049118      -51.4100151       118.452179    
   59.6000023       20.3025799      -71.7070694      -51.4044914       113.465256    
   59.7000008       20.7351227      -72.1821213      -51.4469986       115.882622    
   59.7999992       20.6785259      -72.1119308      -51.4333992       115.566322    
   59.9000015       20.5630379      -71.9858704      -51.4228325       114.920883    
   60.0000000       20.0194817      -71.4218445      -51.4023666       111.883110    
   60.0999985       20.6462822      -72.0505753      -51.4042892       115.386116    
   60.2000008       20.8731461      -72.2842102      -51.4110680       116.653992    
   60.2999992       21.1019173      -72.5262451      -51.4243317       117.932526    
   60.3999977       20.7055798      -72.1112976      -51.4057159       115.717514    
   60.4999962       21.2656536      -72.6657791      -51.4001274       118.847610    
   60.6000023       20.3858910      -71.7618484      -51.3759537       113.930862    
   60.7000008       20.6076126      -71.9906769      -51.3830643       115.170006    
   60.7999992       20.2951431      -71.6951599      -51.4000168       113.423698    
   60.8999977       20.6128483      -72.0128098      -51.3999634       115.199265    
   61.0000000       20.6858463      -72.0797195      -51.3938675       115.607231    
   61.1000023       20.4298859      -71.8148193      -51.3849297       114.176735    
   61.1999969       20.5898514      -71.9532166      -51.3633652       115.070740    
   61.2999992       20.1958771      -71.5564194      -51.3605423       112.868927    
   61.3999977       20.8159027      -72.1978836      -51.3819809       116.334076    
   61.4999962       20.3965988      -71.7800903      -51.3834877       113.990707    
   61.5999985       20.7397614      -72.1475296      -51.4077721       115.908539    
   61.7000008       20.4707375      -71.8642120      -51.3934784       114.405052    
   61.7999992       20.6456566      -72.0218506      -51.3761940       115.382622    
   61.8999977       20.5084152      -71.8810959      -51.3726845       114.615616    
   62.0000000       20.2729683      -71.6586227      -51.3856506       113.299774    
   62.1000023       20.5948982      -71.9938660      -51.3989677       115.098953    
   62.1999969       20.5599251      -71.9452438      -51.3853149       114.903496    
   62.2999954       20.1287556      -71.5229645      -51.3942032       112.493813    
   62.3999977       20.9869785      -72.3971710      -51.4101906       117.290176    
   62.5000038       20.5966148      -71.9891052      -51.3924866       115.108536    
   62.5999985       20.5836792      -71.9532776      -51.3695946       115.036247    
   62.6999969       20.7138538      -72.1136246      -51.3997726       115.763756    
   62.7999992       20.8353443      -72.2215805      -51.3862381       116.442726    
   62.8999977       20.9647808      -72.3493500      -51.3845711       117.166107    
   63.0000000       20.5611115      -71.9322968      -51.3711891       114.910126    
   63.0999985       20.1478748      -71.5490265      -51.4011459       112.600662    
   63.2000008       20.6547089      -72.0443878      -51.3896751       115.433212    
   63.2999954       19.9784527      -71.4025955      -51.4241447       111.653809    
   63.3999939       20.5754433      -72.0034561      -51.4280128       114.990219    
   63.5000000       20.7483959      -72.1418304      -51.3934326       115.956802    
   63.6000023       20.7301979      -72.1269913      -51.3967972       115.855095    
   63.6999969       20.7807961      -72.1750107      -51.3942146       116.137871    
   63.7999954       20.8344250      -72.2504959      -51.4160728       116.437592    
   63.8999977       20.6676369      -72.0780792      -51.4104424       115.505463    
   63.9999962       20.3739891      -71.7886658      -51.4146767       113.864349    
   64.0999985       20.4073505      -71.8103180      -51.4029655       114.050797    
   64.2000046       19.9759121      -71.3861084      -51.4101944       111.639610    
   64.3000031       20.8717041      -72.2600250      -51.3883209       116.645935    
   64.4000015       21.2478123      -72.6541748      -51.4063606       118.747894    
   64.5000000       20.2266273      -71.6492157      -51.4225883       113.040787    
   64.6000061       20.6466255      -72.0780792      -51.4314575       115.388031    
   64.6999969       20.6796551      -72.1160660      -51.4364052       115.572632    
   64.7999954       20.2796803      -71.6944351      -51.4147530       113.337288    
   64.9000015       20.6058254      -72.0262909      -51.4204674       115.160019    
   65.0000076       20.1339874      -71.5329819      -51.3989906       112.523056    
   65.0999985       20.1175041      -71.5064011      -51.3888931       112.430931    
   65.1999969       20.4382744      -71.8293152      -51.3910370       114.223618    
   65.3000031       20.4556637      -71.8663406      -51.4106750       114.320801    
   65.3999939       20.9502544      -72.3354797      -51.3852234       117.084938    
   65.5000000       21.1910915      -72.5821304      -51.3910370       118.430901    
   65.5999985       19.9487514      -71.3060913      -51.3573418       111.487816    
   65.7000046       20.4652576      -71.8299255      -51.3646660       114.374420    
   65.7999954       20.6188946      -71.9882050      -51.3693123       115.233047    
   65.8999939       20.6537609      -72.0538177      -51.4000511       115.427917    
   66.0000000       21.5143528      -72.9121170      -51.3977623       120.237511    
   66.1000061       20.8740768      -72.2957840      -51.4217110       116.659195    
   66.1999969       20.7366447      -72.1449356      -51.4082909       115.891129    
   66.2999954       20.5331287      -71.9304810      -51.3973503       114.753738    
   66.4000015       20.9008312      -72.3066101      -51.4057808       116.808716    
   66.5000000       19.6950397      -71.0619888      -51.3669472       110.069901    
   66.5999985       20.1098671      -71.4936905      -51.3838272       112.388245    
   66.6999969       20.6743755      -72.0600891      -51.3857117       115.543121    
   66.8000031       20.6765480      -72.0783081      -51.4017601       115.555260    
   66.8999939       21.0027466      -72.3876801      -51.3849297       117.378288    
   67.0000000       20.8776970      -72.2763214      -51.3986282       116.679428    
   67.0999985       20.6795311      -72.0799408      -51.4004097       115.571938    
   67.1999969       20.4838371      -71.8913574      -51.4075241       114.478256    
   67.2999954       20.4960041      -71.8992310      -51.4032249       114.546257    
   67.3999939       20.2287121      -71.6103363      -51.3816223       113.052444    
   67.5000000       20.5423279      -71.9298630      -51.3875351       114.805145    
   67.5999985       20.7968426      -72.1885300      -51.3916893       116.227562    
   67.6999969       20.2622833      -71.6402206      -51.3779373       113.240059    
   67.7999954       20.7261276      -72.1025391      -51.3764114       115.832344    
   67.8999939       20.7443848      -72.1391068      -51.3947220       115.934387    
   68.0000000       21.1537418      -72.5623474      -51.4086037       118.222160    
   68.0999985       21.1179085      -72.5370331      -51.4191208       118.021904    
   68.1999969       21.2094135      -72.6169434      -51.4075241       118.533302    
   68.2999954       20.6127605      -72.0147171      -51.4019585       115.198776    
   68.3999939       21.1265125      -72.5440063      -51.4174957       118.069984    
   68.5000000       20.8689480      -72.2821426      -51.4131966       116.630539    
   68.5999985       20.7666168      -72.1652832      -51.3986626       116.058640    
   68.6999969       20.8369865      -72.2521362      -51.4151497       116.451912    
   68.7999954       20.4059162      -71.8384781      -51.4325638       114.042778    
   68.8999939       20.8643665      -72.2674637      -51.4030952       116.604935    
   69.0000000       20.6899662      -72.1112518      -51.4212914       115.630249    
   69.0999985       20.5948353      -72.0217438      -51.4269066       115.098595    
   69.2000046       20.9315853      -72.3481903      -51.4166031       116.980598    
   69.2999954       20.8591881      -72.2631073      -51.4039154       116.575981    
   69.4000015       20.6032333      -71.9953690      -51.3921318       115.145523    
   69.5000000       20.6428585      -72.0179443      -51.3750877       115.366982    
   69.6000061       20.2769470      -71.6750107      -51.3980675       113.322006    
   69.6999969       20.4872952      -71.8623276      -51.3750343       114.497589    
   69.7999954       20.2565289      -71.6609955      -51.4044685       113.207901    
   69.9000015       20.3127518      -71.7236481      -51.4108963       113.522110    
   70.0000000       20.6076050      -72.0171432      -51.4095345       115.169968    
   70.0999985       20.5594158      -71.9592972      -51.3998833       114.900642    
   70.1999969       20.2661209      -71.6904831      -51.4243660       113.261497    
   70.3000031       20.3252335      -71.7255936      -51.4003563       113.591866    
   70.4000015       20.4656258      -71.8975601      -51.4319305       114.376480    
   70.5000000       20.9048843      -72.3125076      -51.4076271       116.831367    
   70.5999985       20.5794353      -71.9984207      -51.4189873       115.012527    
   70.7000046       20.2604885      -71.6764755      -51.4159889       113.230034    
   70.7999954       20.4352760      -71.8121872      -51.3769112       114.206871    
   70.9000015       20.5545120      -71.9613953      -51.4068871       114.873238    
   71.0000000       20.6554279      -72.0813370      -51.4259033       115.437233    
   71.0999985       20.6025257      -72.0226746      -51.4201469       115.141579    
   71.1999969       20.7464638      -72.1519470      -51.4054794       115.945999    
   71.2999954       20.2918701      -71.7014999      -51.4096260       113.405411    
   71.4000015       20.3194790      -71.7436523      -51.4241753       113.559708    
   71.5000000       20.5009861      -71.9209061      -51.4199219       114.574097    
   71.5999985       20.6001759      -72.0065002      -51.4063225       115.128441    
   71.6999969       19.9743195      -71.3856506      -51.4113274       111.630707    
   71.8000031       20.0267372      -71.4298553      -51.4031181       111.923660    
   71.9000015       19.9518242      -71.3371811      -51.3853531       111.504997    
   72.0000000       20.8151436      -72.2279968      -51.4128532       116.329834    
   72.0999985       20.5238457      -71.9208069      -51.3969612       114.701859    
   72.1999969       20.7933006      -72.2160568      -51.4227600       116.207764    
   72.2999954       21.0160007      -72.4403763      -51.4243698       117.452370    
   72.4000015       20.7369003      -72.1517105      -51.4148102       115.892555    
   72.5000000       20.9319515      -72.3380661      -51.4061165       116.982643    
   72.5999985       20.1908474      -71.6076889      -51.4168434       112.840820    
   72.6999969       20.4794712      -71.8702850      -51.3908157       114.453857    
   72.7999954       20.8101978      -72.2047806      -51.3945847       116.302193    
   72.9000015       20.7377586      -72.1566010      -51.4188423       115.897354    
   73.0000000       20.7533569      -72.1702499      -51.4168930       115.984528    
   73.0999908       21.0243359      -72.4295731      -51.4052391       117.498947    
   73.2000046       20.3888683      -71.8067093      -51.4178467       113.947502    
   73.2999954       20.4437370      -71.8719177      -51.4281807       114.254150    
   73.3999939       20.2033596      -71.6129761      -51.4096184       112.910751    
   73.4999924       20.3475533      -71.7576981      -51.4101448       113.716606    
   73.5999985       20.8022938      -72.2261276      -51.4238319       116.258018    
   73.6999969       20.7773285      -72.1830292      -51.4057007       116.118500    
   73.7999954       20.5067921      -71.9100113      -51.4032211       114.606544    
   73.8999939       20.1224403      -71.5122375      -51.3898010       112.458511    
   74.0000000       20.5859070      -71.9904099      -51.4044991       115.048698    
   74.0999985       20.5406914      -71.9264755      -51.3857880       114.795998    
   74.1999969       20.8366413      -72.2482452      -51.4116058       116.449982    
   74.2999954       20.5628166      -71.9597015      -51.3968849       114.919655    
   74.3999939       20.4631329      -71.8331451      -51.3700104       114.362549    
   74.5000000       20.6466084      -72.0646744      -51.4180641       115.387932    
   74.5999985       20.7440624      -72.1627274      -51.4186630       115.932587    
   74.6999969       20.5642052      -71.9897079      -51.4255028       114.927406    
   74.7999954       20.9128456      -72.3715057      -51.4586563       116.875862    
   74.9000015       20.2404251      -71.6636429      -51.4232140       113.117897    
   75.0000000       20.7389240      -72.1587448      -51.4198189       115.903870    
   75.0999908       20.4911003      -71.9089508      -51.4178505       114.518845    
   75.1999969       19.8452702      -71.2565079      -51.4112358       110.909485    
   75.3000031       20.2079754      -71.5974121      -51.3894424       112.936546    
   75.3999939       20.5560246      -71.9447632      -51.3887405       114.881691    
   75.4999924       20.4618397      -71.8356705      -51.3738289       114.355316    
   75.5999985       20.4053345      -71.7963257      -51.3909874       114.039536    
   75.6999969       20.6375008      -72.0601425      -51.4226456       115.337036    
   75.7999954       20.4791164      -71.9116974      -51.4325790       114.451874    
   75.8999939       20.3999672      -71.8060150      -51.4060440       114.009529    
   75.9999924       21.0020065      -72.4065399      -51.4045334       117.374153    
   76.0999985       20.2988110      -71.7200699      -51.4212570       113.444199    
   76.1999969       20.8014317      -72.2150497      -51.4136162       116.253204    
   76.2999954       20.7903824      -72.2185440      -51.4281616       116.191444    
   76.3999939       20.7528572      -72.1734695      -51.4206123       115.981735    
   76.4999924       20.6425018      -72.0090408      -51.3665428       115.364990    
   76.6000061       21.2471333      -72.6014099      -51.3542786       118.744095    
   76.6999969       20.6466866      -72.0048294      -51.3581467       115.388374    
   76.8000031       20.6044044      -71.9785156      -51.3741074       115.152077    
   76.9000015       19.8117542      -71.1869965      -51.3752365       110.722183    
   77.0000076       20.3677807      -71.7423553      -51.3745728       113.829651    
   77.1000061       19.9848404      -71.3879929      -51.4031525       111.689507    
   77.2000046       20.6051846      -72.0129471      -51.4077682       115.156433    
   77.3000031       20.5747776      -71.9791183      -51.4043388       114.986496    
   77.3999939       20.4672241      -71.8674164      -51.4001884       114.385406    
   77.5000076       20.5800800      -71.9941635      -51.4140816       115.016136    
   77.6000061       20.3952465      -71.8044128      -51.4091606       113.983147    
   77.6999969       20.4809570      -71.8842087      -51.4032478       114.462166    
   77.8000031       20.8043709      -72.1965790      -51.3922081       116.269623    
   77.8999939       20.8784466      -72.2799683      -51.4015236       116.683617    
   78.0000076       20.7561493      -72.1477280      -51.3915787       116.000130    
   78.1000061       20.6128769      -72.0128937      -51.4000168       115.199425    
   78.1999969       20.2812881      -71.6958160      -51.4145241       113.346275    
   78.3000107       20.2592640      -71.6674576      -51.4081917       113.223190    
   78.4000015       20.1359005      -71.5292206      -51.3933182       112.533737    
   78.5000000       20.0572338      -71.4660492      -51.4088135       112.094093    
   78.6000061       20.1203213      -71.5305176      -51.4101944       112.446678    
   78.6999969       20.2380180      -71.6527786      -51.4147606       113.104446    
   78.8000031       20.5516396      -71.9828415      -51.4312019       114.857193    
   78.9000015       20.6469250      -72.0827942      -51.4358673       115.389709    
   79.0000000       20.9808750      -72.3907166      -51.4098396       117.256058    
   79.0999985       20.2206287      -71.6142578      -51.3936234       113.007263    
   79.2000046       20.1025066      -71.5141068      -51.4116020       112.347107    
   79.3000031       20.7717190      -72.1911774      -51.4194603       116.087151    
   79.4000015       20.5310707      -71.9535522      -51.4224854       114.742226    
   79.5000000       21.2726059      -72.7167740      -51.4441719       118.886452    
   79.5999985       20.3876095      -71.8350830      -51.4474716       113.940475    
   79.7000046       21.2966251      -72.7212906      -51.4246635       119.020699    
   79.8000031       20.6041489      -72.0528641      -51.4487114       115.150642    
   79.8999939       20.5528011      -72.0121307      -51.4593315       114.863678    
   80.0000000       20.2289848      -71.6788864      -51.4499016       113.053963    
   80.1000061       20.8114853      -72.2550125      -51.4435310       116.309395    
   80.1999969       20.6663704      -72.1030045      -51.4366341       115.498383    
   80.3000031       20.6217556      -72.0743179      -51.4525642       115.249046    
   80.3999939       20.2424984      -71.6618500      -51.4193497       113.129486    
   80.5000076       20.5974979      -71.9912262      -51.3937302       115.113472    
   80.6000061       20.2717800      -71.6677704      -51.3959885       113.293137    
   80.6999969       20.4940014      -71.8711090      -51.3771019       114.535057    
   80.8000031       20.3850956      -71.7564774      -51.3713799       113.926422    
   80.8999939       20.1278667      -71.5042648      -51.3764038       112.488838    
   81.0000000       19.9517841      -71.3385162      -51.3867340       111.504761    
   81.1000061       20.1786385      -71.5789108      -51.4002724       112.772591    
   81.1999969       20.3977585      -71.7882767      -51.3905182       113.997185    
   81.2999954       20.0150471      -71.4132156      -51.3981705       111.858322    
   81.4000015       20.8444328      -72.2469330      -51.4025002       116.493515    
   81.5000000       21.3444710      -72.7449875      -51.4005203       119.288094    
   81.6000061       20.7389107      -72.1467438      -51.4078369       115.903786    
   81.6999969       20.5884571      -71.9887238      -51.4002686       115.062950    
   81.7999954       19.9094830      -71.3147659      -51.4052811       111.268364    
   81.9000015       20.3232841      -71.7368088      -51.4135246       113.580978    
   82.0000000       20.2943954      -71.7078247      -51.4134331       113.419518    
   82.0999985       20.8952942      -72.2974472      -51.4021530       116.777771    
   82.1999969       20.3748627      -71.7587738      -51.3839111       113.869232    
   82.3000031       20.8617897      -72.2745438      -51.4127541       116.590523    
   82.3999939       20.7120800      -72.1381989      -51.4261208       115.753838    
   82.5000000       20.6002350      -72.0311966      -51.4309616       115.128769    
   82.5999985       20.1753769      -71.6017532      -51.4263763       112.754364    
   82.6999893       20.4603806      -71.8810577      -51.4206772       114.347160    
   82.8000031       20.5276566      -71.9472275      -51.4195709       114.723145    
   82.8999939       21.0984650      -72.5244217      -51.4259605       117.913239    
   83.0000000       20.6552620      -72.0873108      -51.4320450       115.436302    
   83.0999985       20.7352524      -72.1640396      -51.4287834       115.883347    
   83.1999969       20.9601669      -72.3916702      -51.4314995       117.140327    
   83.3000031       20.5808353      -72.0139236      -51.4330864       115.020355    
   83.3999939       20.4274578      -71.8294907      -51.4020348       114.163170    
   83.4999924       20.5374908      -71.9340286      -51.3965378       114.778107    
   83.6000061       20.5833626      -71.9910812      -51.4077187       115.034477    
   83.6999969       20.5185738      -71.9296875      -51.4111099       114.672386    
   83.7999954       20.7828465      -72.2208328      -51.4379845       116.149330    
   83.8999939       20.5742798      -71.9824753      -51.4081955       114.983719    
   83.9999924       21.0353470      -72.4272614      -51.3919106       117.560486    
   84.1000061       20.5679665      -71.9583511      -51.3903809       114.948441    
   84.1999969       20.0267658      -71.4237137      -51.3969498       111.923820    
   84.2999954       20.5653400      -71.9583817      -51.3930435       114.933746    
   84.3999939       20.4661274      -71.8806839      -51.4145546       114.379280    
   84.5000000       20.9348221      -72.3478928      -51.4130669       116.998680    
   84.5999985       20.9371910      -72.3456116      -51.4084244       117.011925    
   84.6999969       20.3877296      -71.7985916      -51.4108658       113.941139    
   84.7999954       20.6630402      -72.0734634      -51.4104233       115.479774    
   84.8999863       20.7679691      -72.1703186      -51.4023476       116.066185    
   85.0000000       20.9837532      -72.3986206      -51.4148674       117.272141    
   85.0999985       20.5348606      -71.9444885      -51.4096260       114.763412    
   85.1999893       20.6195126      -72.0290756      -51.4095650       115.236511    
   85.2999954       20.4402504      -71.8702240      -51.4299736       114.234665    
   85.3999939       20.7189083      -72.1212082      -51.4022942       115.792007    
   85.5000000       20.8700390      -72.2722397      -51.4021988       116.636627    
   85.5999985       20.6907749      -72.1028671      -51.4120903       115.634773    
   85.6999893       20.4098072      -71.8303757      -51.4205704       114.064529    
   85.8000031       20.3724060      -71.8091583      -51.4367523       113.855507    
   85.8999939       20.6519299      -72.0848923      -51.4329605       115.417679    
   85.9999924       20.8530445      -72.3085861      -51.4555359       116.541656    
   86.0999985       20.4358463      -71.8905792      -51.4547310       114.210045    
   86.1999893       20.0688801      -71.5302124      -51.4613304       112.159187    
   86.2999954       20.7544956      -72.1999588      -51.4454651       115.990891    
   86.3999939       20.4299583      -71.8750229      -51.4450645       114.177139    
   86.4999924       20.3284359      -71.7637939      -51.4353600       113.609772    
   86.5999985       19.9054260      -71.3156738      -51.4102516       111.245689    
   86.6999969       21.0031624      -72.4079742      -51.4048119       117.380615    
   86.7999954       20.5890064      -72.0072632      -51.4182549       115.066017    
   86.8999939       20.4132366      -71.8290100      -51.4157715       114.083694    
   86.9999924       20.2017136      -71.6376724      -51.4359589       112.901550    
   87.1000061       20.6787415      -72.1044998      -51.4257584       115.567520    
   87.2000046       19.9561539      -71.3688889      -51.4127350       111.529182    
   87.3000031       19.7109528      -71.1068878      -51.3959351       110.158836    
   87.3999939       20.5461063      -71.9402313      -51.3941231       114.826263    
   87.5000076       20.9389706      -72.3261032      -51.3871307       117.021866    
   87.6000061       20.7540569      -72.1279221      -51.3738632       115.988434    
   87.6999969       20.4311848      -71.8282852      -51.3971024       114.183998    
   87.8000031       20.7663116      -72.1467590      -51.3804474       116.056931    
   87.8999939       21.0380859      -72.4138718      -51.3757858       117.575798    
   88.0000000       20.6442375      -72.0034409      -51.3591995       115.374695    
   88.1000061       20.7045231      -72.0969849      -51.3924675       115.711609    
   88.1999969       20.8317528      -72.2500076      -51.4182587       116.422661    
   88.3000031       21.0841351      -72.5235443      -51.4394073       117.833145    
   88.4000015       20.5960293      -71.9904633      -51.3944321       115.105270    
   88.5000000       20.6937065      -72.0917206      -51.3980141       115.651161    
   88.6000061       20.9460373      -72.3615570      -51.4155159       117.061363    
   88.6999969       21.2107677      -72.6555023      -51.4447289       118.540863    
   88.7999954       20.2640209      -71.6757355      -51.4117165       113.249771    
   88.9000092       20.5571461      -71.9822235      -51.4250793       114.887962    
   89.0000000       20.3502350      -71.7773666      -51.4271317       113.731598    
   89.0999985       20.4906425      -71.9174957      -51.4268494       114.516289    
   89.1999969       20.6074772      -72.0301132      -51.4226341       115.169250    
   89.3000031       20.3140888      -71.7391663      -51.4250793       113.529587    
   89.4000092       20.4392033      -71.8440552      -51.4048538       114.228813    
   89.5000000       20.5501041      -71.9787827      -51.4286804       114.848610    
   89.5999985       19.8216438      -71.2285385      -51.4068909       110.777451    
   89.7000046       20.6817970      -72.0833130      -51.4015160       115.584595    
   89.8000031       20.6627064      -72.0712128      -51.4085007       115.477905    
   89.8999939       20.9158878      -72.3130569      -51.3971710       116.892868    
   90.0000000       21.2454777      -72.6838379      -51.4383621       118.734848    
   90.1000061       20.8756008      -72.3031158      -51.4275131       116.667717    
   90.1999969       20.2246895      -71.6423035      -51.4176140       113.029961    
   90.3000031       20.7441254      -72.1347733      -51.3906441       115.932930    
   90.3999939       20.8771305      -72.2507172      -51.3735886       116.676254    
   90.5000000       20.8767719      -72.2605515      -51.3837776       116.674263    
   90.6000061       20.9718227      -72.3637314      -51.3919106       117.205467    
   90.6999969       20.7233353      -72.1116104      -51.3882751       115.816742    
   90.8000031       20.1794910      -71.5641174      -51.3846245       112.777359    
   90.9000015       20.6717186      -72.0464783      -51.3747635       115.528267    
   90.9999924       20.8667164      -72.2591324      -51.3924103       116.618057    
   91.1000061       21.3830452      -72.8133011      -51.4302597       119.503670    
   91.1999969       20.6978359      -72.1189041      -51.4210663       115.674232    
   91.2999954       20.2604427      -71.7044144      -51.4439697       113.229767    
   91.4000092       20.5721455      -72.0053635      -51.4332199       114.971794    
   91.5000000       20.8200073      -72.2441940      -51.4241905       116.357018    
   91.5999985       20.5254135      -71.9578552      -51.4324417       114.710609    
   91.6999969       21.0281239      -72.4536819      -51.4255562       117.520119    
   91.7999954       20.8086071      -72.2197266      -51.4111176       116.293297    
   91.9000092       20.4222870      -71.8142624      -51.3919754       114.134270    
   92.0000000       20.1708755      -71.5755920      -51.4047165       112.729202    
   92.0999985       21.1343441      -72.5420685      -51.4077263       118.113754    
   92.1999969       20.5521603      -71.9661331      -51.4139748       114.860100    
   92.3000031       20.4843121      -71.9025421      -51.4182281       114.480911    
   92.4000015       20.9598446      -72.3778152      -51.4179726       117.138527    
   92.5000000       20.9374409      -72.3414764      -51.4040413       117.013321    
   92.5999985       20.9542828      -72.3277130      -51.3734283       117.107445    
   92.6999893       20.3012638      -71.7146988      -51.4134331       113.457909    
   92.8000031       20.5288849      -71.9653854      -51.4365005       114.730019    
   92.9000015       20.5783939      -71.9924622      -51.4140663       115.006706    
   93.0000000       20.3015156      -71.6877365      -51.3862228       113.459312    
   93.0999985       20.6294918      -72.0248871      -51.3953934       115.292274    
   93.1999893       20.3453808      -71.7508621      -51.4054794       113.704468    
   93.3000031       20.5037842      -71.9163818      -51.4125977       114.589737    
   93.4000015       20.1773148      -71.5741272      -51.3968124       112.765190    
   93.4999924       20.3706493      -71.7473984      -51.3767509       113.845688    
   93.6000061       20.2981129      -71.6861877      -51.3880768       113.440300    
   93.6999969       20.2610321      -71.6613007      -51.4002686       113.233063    
   93.7999954       20.4904213      -71.8846817      -51.3942566       114.515060    
   93.9000015       20.7377224      -72.1420212      -51.4042969       115.897148    
   93.9999924       20.4885769      -71.9199448      -51.4313660       114.504753    
   94.0999985       19.9285011      -71.3280106      -51.3995094       111.374649    
   94.1999969       19.9276943      -71.3266296      -51.3989372       111.370140    
   94.2999954       21.0223713      -72.4389954      -51.4166222       117.487968    
   94.4000015       21.0495987      -72.4477997      -51.3981972       117.640129    
   94.4999924       21.1382923      -72.5376205      -51.3993301       118.135818    
   94.5999985       19.8941879      -71.2844315      -51.3902397       111.182884    
   94.6999969       20.3852367      -71.7827911      -51.3975525       113.927208    
   94.7999954       20.3720722      -71.7718887      -51.3998146       113.853638    
   94.8999939       20.7596607      -72.1567917      -51.3971329       116.019760    
   95.0000000       20.2849617      -71.6792450      -51.3942833       113.366798    
   95.0999985       20.7390308      -72.1375046      -51.3984756       115.904457    
   95.1999893       20.5208569      -71.9191666      -51.3983078       114.685158    
   95.2999954       20.4023800      -71.8089142      -51.4065323       114.023010    
   95.4000015       20.9370880      -72.3510590      -51.4139748       117.011353    
   95.5000000       20.8501949      -72.2684250      -51.4182320       116.525726    
   95.5999985       20.8440437      -72.2526550      -51.4086151       116.491348    
   95.6999893       20.6613178      -72.0712509      -51.4099312       115.470146    
   95.8000031       19.9937935      -71.4023819      -51.4085922       111.739540    
   95.9000015       21.0284157      -72.4505768      -51.4221573       117.521744    
   95.9999924       21.0965118      -72.5059586      -51.4094467       117.902321    
   96.0999985       20.7067089      -72.1092377      -51.4025269       115.723824    
   96.1999893       20.7617073      -72.1616821      -51.3999748       116.031189    
   96.2999954       20.9730072      -72.3817902      -51.4087791       117.212090    
   96.4000015       20.6429405      -72.0558853      -51.4129448       115.367439    
   96.4999924       20.1448364      -71.5481262      -51.4032898       112.583687    
   96.5999985       19.8909740      -71.2682724      -51.3773003       111.164917    
   96.6999893       20.1370277      -71.5225830      -51.3855515       112.540039    
   96.7999954       20.3805714      -71.7416534      -51.3610802       113.901138    
   96.9000015       20.5158386      -71.9219971      -51.4061584       114.657104    
   96.9999924       20.2237740      -71.6174240      -51.3936539       113.024841    
   97.0999908       20.7841263      -72.1780319      -51.3939095       116.156487    
   97.1999969       21.3677883      -72.7908859      -51.4230957       119.418404    
   97.3000031       20.2487545      -71.6535950      -51.4048386       113.164444    
   97.4000015       20.5616035      -71.9861145      -51.4245071       114.912880    
   97.5000000       20.7212563      -72.1491928      -51.4279366       115.805122    
   97.6000061       20.5161457      -71.8997574      -51.3836136       114.658821    
   97.6999969       20.7140102      -72.1192474      -51.4052391       115.764626    
   97.8000031       21.5215244      -72.9551773      -51.4336510       120.277588    
   97.9000015       20.5669212      -71.9795990      -51.4126740       114.942589    
   98.0000000       20.6984367      -72.0955200      -51.3970871       115.677597    
   98.1000061       20.3651772      -71.7695236      -51.4043465       113.815094    
   98.1999969       20.4085789      -71.8314590      -51.4228783       114.057663    
   98.3000031       20.4090977      -71.8286591      -51.4195633       114.060562    
   98.4000092       20.2551994      -71.6717834      -51.4165878       113.200470    
   98.5000000       20.8573589      -72.2912827      -51.4339256       116.565765    
   98.6000061       21.1272030      -72.5507431      -51.4235382       118.073837    
   98.6999969       20.5440693      -71.9416199      -51.3975487       114.814880    
   98.7999954       20.3937302      -71.7876816      -51.3939514       113.974678    
   98.9000092       20.3770790      -71.7852020      -51.4081230       113.881615    
   99.0000000       20.5812950      -71.9865417      -51.4052467       115.022926    
   99.0999985       20.4820442      -71.8780746      -51.3960266       114.468239    
   99.1999969       20.5304470      -71.9423294      -51.4118805       114.738747    
   99.3000031       20.6404190      -72.0650482      -51.4246292       115.353355    
   99.4000092       21.1530991      -72.5635681      -51.4104652       118.218567    
   99.5000000       20.6371460      -72.0498047      -51.4126587       115.335060    
   99.5999985       21.0593033      -72.4637604      -51.4044609       117.694374    
   99.6999969       20.8408375      -72.2754669      -51.4346352       116.473434    
   99.8000031       20.5972900      -72.0114441      -51.4141579       115.112312    
   99.9000015       20.8579712      -72.2604294      -51.4024544       116.569183    
   100.000000       20.6684761      -72.0704880      -51.4020157       115.510147    
