 Time (ps)Ekin (1e12erg)Epot (1e12erg)E (1e12erg)T (K)
   0.00000000       16.8911877      -57.4326630      -40.5414734       9.43999754E+13
   9.99999978E-03   16.6989689      -57.2381706      -40.5391998       9.33257219E+13
   1.99999996E-02   16.1386375      -56.6758308      -40.5371933       9.01941874E+13
   2.99999993E-02   15.2476225      -55.8484039      -40.6007843       8.52145587E+13
   3.99999991E-02   14.0903893      -54.8480263      -40.7576370       7.87471265E+13
   5.00000007E-02   12.7586193      -53.6998215      -40.9412003       7.13042417E+13
   5.99999987E-02   11.3706598      -52.4782867      -41.1076241       6.35473379E+13
   7.00000003E-02   10.0648661      -51.3017769      -41.2369080       5.62496348E+13
   7.99999982E-02   8.98181725      -50.3233795      -41.3415604       5.01967843E+13
   8.99999961E-02   8.23794460      -49.6643333      -41.4263878       4.60394951E+13
  0.100000001       7.89958382      -49.4003029      -41.5007210       4.41484931E+13
  0.109999992       7.96880341      -49.5376778      -41.5688782       4.45353422E+13
  0.119999997       8.38741302      -50.0022888      -41.6148796       4.68748327E+13
  0.129999995       9.05669975      -50.7183228      -41.6616211       5.06152836E+13
  0.140000001       9.86265182      -51.5627937      -41.7001419       5.51195131E+13
  0.150000006       10.6985569      -52.4285851      -41.7300301       5.97911457E+13
  0.159999996       11.4799452      -53.2599373      -41.7799911       6.41581040E+13
  0.169999972       12.1516171      -53.9544144      -41.8027954       6.79118887E+13
  0.179999992       12.6887550      -54.5094185      -41.8206596       7.09137940E+13
  0.189999998       13.0939426      -54.9377594      -41.8438148       7.31782652E+13
  0.200000003       13.3913622      -55.2628479      -41.8714867       7.48404594E+13
  0.209999993       13.6189766      -55.5104485      -41.8914719       7.61125331E+13
  0.219999984       13.8198519      -55.7392197      -41.9193687       7.72351638E+13
  0.230000019       14.0339651      -55.9747543      -41.9407921       7.84317819E+13
  0.239999995       14.2918549      -56.2547073      -41.9628487       7.98730538E+13
  0.249999985       14.6117525      -56.6041908      -41.9924355       8.16608759E+13
  0.259999990       14.9997721      -57.0054588      -42.0056877       8.38293982E+13
  0.269999981       15.4528599      -57.4677658      -42.0149040       8.63615750E+13
  0.280000001       15.9622889      -57.9954643      -42.0331764       8.92086266E+13
  0.289999992       16.5171204      -58.5726891      -42.0555687       9.23094252E+13
  0.300000012       17.1065235      -59.1920547      -42.0855293       9.56034303E+13
  0.310000002       17.7220783      -59.8377037      -42.1156235       9.90435900E+13
  0.319999993       18.3584442      -60.4947891      -42.1363411       1.02600049E+14
  0.329999983       19.0127335      -61.1688614      -42.1561241       1.06256686E+14
  0.339999944       19.6834087      -61.8594398      -42.1760330       1.10004900E+14
  0.349999994       20.3678112      -62.5669785      -42.1991692       1.13829829E+14
  0.359999985       21.0606689      -63.2872086      -42.2265434       1.17702002E+14
  0.370000005       21.7537956      -64.0013580      -42.2475662       1.21575685E+14
  0.379999995       22.4372444      -64.7072754      -42.2700272       1.25395286E+14
  0.389999986       23.1009560      -65.3955994      -42.2946434       1.29104569E+14
  0.400000006       23.7369766      -66.0467682      -42.3097878       1.32659116E+14
  0.409999996       24.3393593      -66.6612091      -42.3218536       1.36025649E+14
  0.419999987       24.9035873      -67.2478104      -42.3442268       1.39178969E+14
  0.430000007       25.4246578      -67.7826691      -42.3580132       1.42091074E+14
  0.439999968       25.8972054      -68.2900848      -42.3928795       1.44732009E+14
  0.449999988       26.3160324      -68.7236938      -42.4076614       1.47072716E+14
  0.460000038       26.6768036      -69.1046448      -42.4278412       1.49088952E+14
  0.469999999       26.9763298      -69.4119797      -42.4356537       1.50762932E+14
  0.479999989       27.2117615      -69.6716537      -42.4598961       1.52078685E+14
  0.489999980       27.3809013      -69.8571091      -42.4762115       1.53023964E+14
  0.499999970       27.4835110      -69.9749908      -42.4914780       1.53597426E+14
  0.510000050       27.5241966      -70.0353699      -42.5111694       1.53824791E+14
  0.519999981       27.5139046      -70.0322342      -42.5183334       1.53767278E+14
  0.529999971       27.4720440      -69.9962921      -42.5242462       1.53533320E+14
  0.539999962       27.4251518      -69.9596176      -42.5344696       1.53271277E+14
  0.550000012       27.4023170      -69.9428711      -42.5405540       1.53143652E+14
  0.560000002       27.4264069      -69.9799728      -42.5535660       1.53278273E+14
  0.569999993       27.5045185      -70.0759735      -42.5714531       1.53714816E+14
  0.579999983       27.6232395      -70.2026749      -42.5794411       1.54378304E+14
  0.589999974       27.7548523      -70.3471680      -42.5923119       1.55113868E+14
  0.600000024       27.8699665      -70.4640884      -42.5941200       1.55757207E+14
  0.610000014       27.9502144      -70.5472488      -42.5970345       1.56205696E+14
  0.620000005       27.9914398      -70.6035767      -42.6121368       1.56436080E+14
  0.629999995       28.0009651      -70.6068268      -42.6058617       1.56489314E+14
  0.639999986       27.9922390      -70.6080246      -42.6157875       1.56440543E+14
  0.649999976       27.9799728      -70.6030731      -42.6231003       1.56371991E+14
  0.659999967       27.9760456      -70.6061096      -42.6300659       1.56350047E+14
  0.669999957       27.9864082      -70.6208649      -42.6344566       1.56407962E+14
  0.679999888       28.0101376      -70.6537933      -42.6436577       1.56540569E+14
  0.690000057       28.0398560      -70.6827469      -42.6428909       1.56706663E+14
  0.699999988       28.0657291      -70.7140732      -42.6483421       1.56851249E+14
  0.710000038       28.0810261      -70.7257690      -42.6447372       1.56936763E+14
  0.719999969       28.0855694      -70.7293930      -42.6438255       1.56962147E+14
  0.729999959       28.0829239      -70.7292480      -42.6463242       1.56947349E+14
  0.740000010       28.0748196      -70.7215424      -42.6467209       1.56902068E+14
  0.749999940       28.0602894      -70.7020950      -42.6418076       1.56820866E+14
  0.759999990       28.0409679      -70.6786880      -42.6377144       1.56712888E+14
  0.769999981       28.0263481      -70.6647110      -42.6383629       1.56631183E+14
  0.779999971       28.0302696      -70.6734314      -42.6431618       1.56653094E+14
  0.790000021       28.0580692      -70.6952820      -42.6372147       1.56808451E+14
  0.800000012       28.1004391      -70.7381439      -42.6377068       1.57045244E+14
  0.810000002       28.1415329      -70.7802048      -42.6386757       1.57274908E+14
  0.819999993       28.1699753      -70.7991333      -42.6291656       1.57433872E+14
  0.829999983       28.1794567      -70.8074188      -42.6279640       1.57486854E+14
  0.839999974       28.1649017      -70.7948303      -42.6299286       1.57405501E+14
  0.849999964       28.1239815      -70.7601776      -42.6361923       1.57176811E+14
  0.860000014       28.0595474      -70.6964951      -42.6369476       1.56816705E+14
  0.870000005       27.9781151      -70.6140213      -42.6359100       1.56361623E+14
  0.879999936       27.8881664      -70.5100937      -42.6219254       1.55858911E+14
  0.890000045       27.8007870      -70.4173279      -42.6165428       1.55370593E+14
  0.899999976       27.7305775      -70.3368149      -42.6062355       1.54978207E+14
  0.909999967       27.6933651      -70.2817612      -42.5883942       1.54770237E+14
  0.920000076       27.7014351      -70.2902374      -42.5888023       1.54815317E+14
  0.930000007       27.7615414      -70.3595276      -42.5979881       1.55151248E+14
  0.939999998       27.8732033      -70.4672775      -42.5940742       1.55775293E+14
  0.949999988       28.0247078      -70.6172638      -42.5925560       1.56622005E+14
  0.959999979       28.1906452      -70.7779770      -42.5873375       1.57549400E+14
  0.969999969       28.3365383      -70.9169617      -42.5804214       1.58364722E+14
  0.979999959       28.4293308      -71.0120544      -42.5827293       1.58883323E+14
  0.989999950       28.4483223      -71.0285263      -42.5802040       1.58989472E+14
  0.999999940       28.3893089      -70.9739532      -42.5846481       1.58659649E+14
   1.00999999       28.2627735      -70.8418961      -42.5791206       1.57952506E+14
   1.02000010       28.0884991      -70.6679382      -42.5794411       1.56978521E+14
   1.02999997       27.8891163      -70.4633560      -42.5742416       1.55864229E+14
   1.03999996       27.6846771      -70.2564621      -42.5717812       1.54721684E+14
   1.04999995       27.4893932      -70.0546799      -42.5652847       1.53630276E+14
   1.05999994       27.3127613      -69.8764725      -42.5637093       1.52643138E+14
   1.06999993       27.1650753      -69.7266998      -42.5616264       1.51817783E+14
   1.07999992       27.0610733      -69.6132507      -42.5521774       1.51236536E+14
   1.09000003       27.0189667      -69.5829391      -42.5639687       1.51001202E+14
   1.10000002       27.0527916      -69.6139145      -42.5611229       1.51190248E+14
   1.11000001       27.1625481      -69.7232285      -42.5606766       1.51803656E+14
   1.12000000       27.3285885      -69.8922272      -42.5636330       1.52731604E+14
   1.13000000       27.5137024      -70.0791473      -42.5654411       1.53766137E+14
   1.13999999       27.6769562      -70.2456665      -42.5687141       1.54678533E+14
   1.14999998       27.7892036      -70.3570786      -42.5678787       1.55305850E+14
   1.15999997       27.8421249      -70.4049835      -42.5628548       1.55601615E+14
   1.16999996       27.8458080      -70.4117584      -42.5659523       1.55622184E+14
   1.17999995       27.8190460      -70.3817749      -42.5627327       1.55472632E+14
   1.18999994       27.7799168      -70.3366623      -42.5567436       1.55253958E+14
   1.20000005       27.7395515      -70.2973251      -42.5577698       1.55028354E+14
   1.21000016       27.7013264      -70.2559280      -42.5545998       1.54814713E+14
   1.22000003       27.6637497      -70.2178726      -42.5541229       1.54604713E+14
   1.23000002       27.6250668      -70.1784744      -42.5534058       1.54388539E+14
   1.24000001       27.5871086      -70.1344833      -42.5473747       1.54176391E+14
   1.25000000       27.5548611      -70.0967712      -42.5419083       1.53996170E+14
   1.25999999       27.5322361      -70.0717697      -42.5395317       1.53869737E+14
   1.26999998       27.5183754      -70.0564346      -42.5380554       1.53792243E+14
   1.27999997       27.5076218      -70.0431366      -42.5355148       1.53732164E+14
   1.28999996       27.4916096      -70.0248108      -42.5332031       1.53642674E+14
   1.29999995       27.4638557      -69.9898987      -42.5260391       1.53487569E+14
   1.30999994       27.4259548      -69.9533539      -42.5273972       1.53275756E+14
   1.31999993       27.3902416      -69.9038925      -42.5136528       1.53076158E+14
   1.32999992       27.3756428      -69.8837967      -42.5081558       1.52994570E+14
   1.33999991       27.3963146      -69.8988876      -42.5025711       1.53110098E+14
   1.34999990       27.4520664      -69.9468536      -42.4947853       1.53421668E+14
   1.35999978       27.5271893      -70.0181427      -42.4909554       1.53841517E+14
   1.37000000       27.5970936      -70.1037979      -42.5067062       1.54232192E+14
   1.38000011       27.6374168      -70.1461487      -42.5087280       1.54457543E+14
   1.39000010       27.6325150      -70.1357269      -42.5032158       1.54430146E+14
   1.39999998       27.5775299      -70.0778198      -42.5002861       1.54122871E+14
   1.41000009       27.4770184      -69.9817276      -42.5047073       1.53561120E+14
   1.42000008       27.3399773      -69.8348236      -42.4948463       1.52795240E+14
   1.42999995       27.1751499      -69.6610413      -42.4858894       1.51874070E+14
   1.43999994       26.9913502      -69.4900818      -42.4987297       1.50846885E+14
   1.45000005       26.8029861      -69.2973099      -42.4943237       1.49794165E+14
   1.45999992       26.6344090      -69.1164551      -42.4820442       1.48852041E+14
   1.46999991       26.5138988      -68.9923325      -42.4784355       1.48178519E+14
   1.48000002       26.4562035      -68.9316711      -42.4754677       1.47856095E+14
   1.48999989       26.4510918      -68.9279099      -42.4768219       1.47827506E+14
   1.49999988       26.4723721      -68.9452133      -42.4728394       1.47946457E+14
   1.50999999       26.4941673      -68.9630356      -42.4688683       1.48068259E+14
   1.51999998       26.5005112      -68.9635239      -42.4630127       1.48103710E+14
   1.52999997       26.4849834      -68.9434204      -42.4584351       1.48016938E+14
   1.53999996       26.4451485      -68.9119110      -42.4667625       1.47794304E+14
   1.54999995       26.3772316      -68.8379135      -42.4606819       1.47414736E+14
   1.55999994       26.2787609      -68.7441635      -42.4654007       1.46864410E+14
   1.56999993       26.1565876      -68.6150970      -42.4585114       1.46181628E+14
   1.58000004       26.0285492      -68.4865646      -42.4580154       1.45466046E+14
   1.59000003       25.9137745      -68.3766479      -42.4628754       1.44824619E+14
   1.60000002       25.8253670      -68.2913132      -42.4659424       1.44330514E+14
   1.61000001       25.7689991      -68.2404861      -42.4714928       1.44015505E+14
   1.62000000       25.7413445      -68.2216415      -42.4802971       1.43860953E+14
   1.63000000       25.7339401      -68.2194519      -42.4855118       1.43819564E+14
   1.63999999       25.7422199      -68.2249908      -42.4827690       1.43865852E+14
   1.64999998       25.7686272      -68.2544250      -42.4857941       1.44013424E+14
   1.65999997       25.8172626      -68.3093338      -42.4920731       1.44285232E+14
   1.66999984       25.8914280      -68.3931198      -42.5016899       1.44699730E+14
   1.67999995       25.9919147      -68.4849930      -42.4930801       1.45261314E+14
   1.69000006       26.1133461      -68.6007462      -42.4873962       1.45939952E+14
   1.69999993       26.2424774      -68.7261505      -42.4836731       1.46661641E+14
   1.71000004       26.3628101      -68.8484116      -42.4856033       1.47334139E+14
   1.72000003       26.4604454      -68.9484406      -42.4879990       1.47879784E+14
   1.72999990       26.5292034      -69.0247955      -42.4955902       1.48264066E+14
   1.74000001       26.5710373      -69.0675583      -42.4965210       1.48497857E+14
   1.75000000       26.5901527      -69.0889435      -42.4987907       1.48604711E+14
   1.75999987       26.5847569      -69.0736160      -42.4888611       1.48574545E+14
   1.76999986       26.5472641      -69.0491104      -42.5018501       1.48364998E+14
   1.78000009       26.4719696      -68.9802856      -42.5083160       1.47944209E+14
   1.78999996       26.3626423      -68.8771896      -42.5145454       1.47333199E+14
   1.79999995       26.2334328      -68.7543411      -42.5209084       1.46611091E+14
   1.81000006       26.1030254      -68.6324081      -42.5293808       1.45882272E+14
   1.81999993       25.9866848      -68.5195465      -42.5328598       1.45232088E+14
   1.82999992       25.8897495      -68.4179993      -42.5282516       1.44690351E+14
   1.84000015       25.8108559      -68.3361588      -42.5252991       1.44249429E+14
   1.85000002       25.7550259      -68.2847672      -42.5297394       1.43937407E+14
   1.86000001       25.7399712      -68.2693863      -42.5294113       1.43853269E+14
   1.87000000       25.7824707      -68.3192139      -42.5367393       1.44090784E+14
   1.88000000       25.8787327      -68.4194870      -42.5407524       1.44628762E+14
   1.88999999       26.0043583      -68.5401764      -42.5358200       1.45330855E+14
   1.89999998       26.1316738      -68.6733704      -42.5416985       1.46042394E+14
   1.90999997       26.2428913      -68.7861176      -42.5432243       1.46663956E+14
   1.91999996       26.3305130      -68.8659973      -42.5354805       1.47153633E+14
   1.92999995       26.3919659      -68.9282379      -42.5362740       1.47497079E+14
   1.93999994       26.4245949      -68.9641724      -42.5395775       1.47679447E+14
   1.94999993       26.4245453      -68.9761963      -42.5516548       1.47679145E+14
   1.95999992       26.3895054      -68.9456024      -42.5560989       1.47483338E+14
   1.96999991       26.3227024      -68.8812332      -42.5585327       1.47109978E+14
   1.97999990       26.2338085      -68.7800446      -42.5462379       1.46613188E+14
   1.98999977       26.1357117      -68.6854401      -42.5497284       1.46064959E+14
   1.99999988       26.0390186      -68.5874252      -42.5484085       1.45524565E+14
   2.01000023       25.9507446      -68.4997482      -42.5490036       1.45031231E+14
   2.01999998       25.8759785      -68.4125595      -42.5365829       1.44613378E+14
   2.02999997       25.8191414      -68.3442230      -42.5250854       1.44295735E+14
   2.04000020       25.7855854      -68.3130417      -42.5274582       1.44108199E+14
   2.04999995       25.7817936      -68.3205414      -42.5387497       1.44087009E+14
   2.05999994       25.8084412      -68.3412552      -42.5328178       1.44235924E+14
   2.07000017       25.8500347      -68.3823547      -42.5323181       1.44468406E+14
   2.07999992       25.8784351      -68.3974762      -42.5190392       1.44627101E+14
   2.08999991       25.8700123      -68.3771057      -42.5070877       1.44580024E+14
   2.09999990       25.8192844      -68.3225021      -42.5032158       1.44296540E+14
   2.10999990       25.7382088      -68.2381821      -42.4999695       1.43843421E+14
   2.11999989       25.6487007      -68.1399231      -42.4912262       1.43343191E+14
   2.12999988       25.5730629      -68.0632477      -42.4901848       1.42920473E+14
   2.13999987       25.5281906      -68.0212936      -42.4931068       1.42669687E+14
   2.14999986       25.5253849      -68.0207443      -42.4953537       1.42654017E+14
   2.15999985       25.5687122      -68.0653915      -42.4966812       1.42896162E+14
   2.17000008       25.6548748      -68.1442947      -42.4894218       1.43377702E+14
   2.18000007       25.7740574      -68.2679901      -42.4939308       1.44043774E+14
   2.18999982       25.9128494      -68.3986816      -42.4858322       1.44819435E+14
   2.20000005       26.0525150      -68.5309143      -42.4784012       1.45599995E+14
   2.21000004       26.1671524      -68.6528320      -42.4856796       1.46240667E+14
   2.22000003       26.2270527      -68.7059174      -42.4788589       1.46575439E+14
   2.23000002       26.2078705      -68.6838455      -42.4759750       1.46468233E+14
   2.24000001       26.1002102      -68.5812759      -42.4810600       1.45866552E+14
   2.25000000       25.9127769      -68.3944550      -42.4816780       1.44819033E+14
   2.25999999       25.6689281      -68.1628113      -42.4938812       1.43456236E+14
   2.26999998       25.4003487      -67.8998184      -42.4994698       1.41955212E+14
   2.27999997       25.1407757      -67.6466064      -42.5058250       1.40504545E+14
   2.28999972       24.9224625      -67.4406357      -42.5181732       1.39284456E+14
   2.29999995       24.7745247      -67.2933426      -42.5188217       1.38457674E+14
   2.30999994       24.7202930      -67.2406845      -42.5203896       1.38154586E+14
   2.31999993       24.7713108      -67.2901306      -42.5188217       1.38439714E+14
   2.32999992       24.9196548      -67.4488678      -42.5292091       1.39268769E+14
   2.33999991       25.1357231      -67.6703568      -42.5346336       1.40476301E+14
   2.34999990       25.3781605      -67.9056091      -42.5274506       1.41831229E+14
   2.35999990       25.6095715      -68.1376114      -42.5280418       1.43124517E+14
   2.36999989       25.8077965      -68.3422089      -42.5344086       1.44232333E+14
   2.37999988       25.9664993      -68.4983521      -42.5318527       1.45119278E+14
   2.38999987       26.0879822      -68.6254044      -42.5374222       1.45798201E+14
   2.40000010       26.1766720      -68.7003326      -42.5236588       1.46293867E+14
   2.40999985       26.2359161      -68.7542801      -42.5183640       1.46624966E+14
   2.42000031       26.2695293      -68.7994080      -42.5298805       1.46812820E+14
   2.43000007       26.2852039      -68.8305969      -42.5453987       1.46900414E+14
   2.44000006       26.2961349      -68.8527756      -42.5566406       1.46961517E+14
   2.45000005       26.3186893      -68.8818130      -42.5631256       1.47087564E+14
   2.46000004       26.3671360      -68.9266663      -42.5595322       1.47358315E+14
   2.46999979       26.4491787      -69.0188065      -42.5696259       1.47816836E+14
   2.48000002       26.5668049      -69.1414108      -42.5746040       1.48474218E+14
   2.49000001       26.7222157      -69.3013763      -42.5791626       1.49342757E+14
   2.50000000       26.9197712      -69.4877243      -42.5679550       1.50446832E+14
   2.51000023       27.1548405      -69.7310944      -42.5762558       1.51760572E+14
   2.51999998       27.4017086      -69.9764481      -42.5747375       1.53140247E+14
   2.52999997       27.6231995      -70.2135773      -42.5903778       1.54378103E+14
   2.53999996       27.7918015      -70.3722076      -42.5804062       1.55320362E+14
   2.55000019       27.8983421      -70.4765091      -42.5781631       1.55915785E+14
   2.55999994       27.9464321      -70.5248184      -42.5783920       1.56184540E+14
   2.57000017       27.9448242      -70.5206757      -42.5758514       1.56175564E+14
   2.57999992       27.9033928      -70.4881058      -42.5847130       1.55944021E+14
   2.58999991       27.8327065      -70.4165344      -42.5838242       1.55548968E+14
   2.59999990       27.7427559      -70.3249435      -42.5821915       1.55046256E+14
   2.60999990       27.6394424      -70.2276917      -42.5882492       1.54468868E+14
   2.61999989       27.5223198      -70.1012802      -42.5789604       1.53814305E+14
   2.63000011       27.3858242      -69.9568405      -42.5710144       1.53051462E+14
   2.63999987       27.2237778      -69.7962646      -42.5724869       1.52145844E+14
   2.64999986       27.0350971      -69.6061020      -42.5710030       1.51091363E+14
   2.65999985       26.8257217      -69.3966446      -42.5709267       1.49921219E+14
   2.66999984       26.6077919      -69.1856003      -42.5778084       1.48703277E+14
   2.67999983       26.3987522      -68.9786453      -42.5798988       1.47535012E+14
   2.69000006       26.2204571      -68.7964859      -42.5760345       1.46538580E+14
   2.69999981       26.0939827      -68.6666260      -42.5726471       1.45831739E+14
   2.70999980       26.0285416      -68.5956116      -42.5670662       1.45466012E+14
   2.71999955       26.0135098      -68.5772781      -42.5637665       1.45382009E+14
   2.73000002       26.0271473      -68.5880203      -42.5608711       1.45458228E+14
   2.74000001       26.0528603      -68.6106491      -42.5577888       1.45601908E+14
   2.75000000       26.0838737      -68.6310043      -42.5471306       1.45775250E+14
   2.76000023       26.1151028      -68.6619339      -42.5468330       1.45949783E+14
   2.76999998       26.1351547      -68.6856766      -42.5505180       1.46061839E+14
   2.78000021       26.1288910      -68.6800690      -42.5511780       1.46026841E+14
   2.78999996       26.0854321      -68.6277390      -42.5423088       1.45783957E+14
   2.79999995       26.0045681      -68.5419540      -42.5373917       1.45332030E+14
   2.80999994       25.8986969      -68.4242401      -42.5255432       1.44740348E+14
   2.82000017       25.7918339      -68.3182220      -42.5263901       1.44143129E+14
   2.82999992       25.7136993      -68.2370529      -42.5233536       1.43706452E+14
   2.84000015       25.6887493      -68.2168427      -42.5280914       1.43567016E+14
   2.84999990       25.7259655      -68.2556305      -42.5296669       1.43774987E+14
   2.85999990       25.8185616      -68.3417892      -42.5232277       1.44292497E+14
   2.86999989       25.9512768      -68.4770813      -42.5258102       1.45034217E+14
   2.87999988       26.1073322      -68.6398087      -42.5324783       1.45906347E+14
   2.88999987       26.2715397      -68.8139191      -42.5423775       1.46824061E+14
   2.90000010       26.4323254      -68.9835510      -42.5512238       1.47722649E+14
   2.90999985       26.5829334      -69.1371231      -42.5541840       1.48564345E+14
   2.91999984       26.7185268      -69.2717896      -42.5532646       1.49322138E+14
   2.92999983       26.8301582      -69.3876114      -42.5574570       1.49946016E+14
   2.93999982       26.9049225      -69.4727402      -42.5678177       1.50363852E+14
   2.95000005       26.9343357      -69.5028305      -42.5684967       1.50528235E+14
   2.96000004       26.9236984      -69.4878693      -42.5641670       1.50468777E+14
   2.97000003       26.8903770      -69.4526749      -42.5622940       1.50282567E+14
   2.97999978       26.8502293      -69.4059601      -42.5557289       1.50058188E+14
   2.99000001       26.8063793      -69.3585052      -42.5521240       1.49813123E+14
   2.99999976       26.7517662      -69.3012238      -42.5494576       1.49507895E+14
   3.00999975       26.6831245      -69.2310410      -42.5479202       1.49124284E+14
   3.01999998       26.6111183      -69.1556702      -42.5445518       1.48721866E+14
   3.02999997       26.5557423      -69.0879440      -42.5321999       1.48412377E+14
   3.03999996       26.5316830      -69.0648880      -42.5332031       1.48277924E+14
   3.05000019       26.5363503      -69.0671234      -42.5307770       1.48304013E+14
   3.05999994       26.5514717      -69.0862350      -42.5347672       1.48388520E+14
   3.06999993       26.5535278      -69.0918121      -42.5382767       1.48400012E+14
   3.07999992       26.5248642      -69.0705795      -42.5457153       1.48239806E+14
   3.09000015       26.4589844      -68.9959488      -42.5369644       1.47871630E+14
   3.09999990       26.3603821      -68.9000320      -42.5396500       1.47320566E+14
   3.11000013       26.2420731      -68.7828979      -42.5408249       1.46659376E+14
   3.11999989       26.1232204      -68.6678314      -42.5446129       1.45995149E+14
   3.12999988       26.0268173      -68.5695190      -42.5426979       1.45456382E+14
   3.13999987       25.9747162      -68.5219193      -42.5472031       1.45165214E+14
   3.15000010       25.9806194      -68.5206299      -42.5400047       1.45198198E+14
   3.16000009       26.0438137      -68.5837708      -42.5399590       1.45551358E+14
   3.17000008       26.1487236      -68.6893539      -42.5406303       1.46137672E+14
   3.18000007       26.2703304      -68.8211823      -42.5508499       1.46817300E+14
   3.18999982       26.3822632      -68.9305725      -42.5483055       1.47442855E+14
   3.20000005       26.4649067      -69.0020218      -42.5371132       1.47904732E+14
   3.20999980       26.5099964      -69.0460815      -42.5360870       1.48156726E+14
   3.22000003       26.5213490      -69.0609818      -42.5396309       1.48220160E+14
   3.23000002       26.5107040      -69.0607376      -42.5500336       1.48160668E+14
   3.24000001       26.4906235      -69.0370865      -42.5464668       1.48048462E+14
   3.24999976       26.4709206      -69.0177078      -42.5467873       1.47938337E+14
   3.25999999       26.4592533      -68.9973221      -42.5380707       1.47873140E+14
   3.26999974       26.4621201      -69.0021896      -42.5400734       1.47889163E+14
   3.27999997       26.4844131      -69.0364685      -42.5520592       1.48013750E+14
   3.28999996       26.5269871      -69.0813293      -42.5543404       1.48251685E+14
   3.29999995       26.5850239      -69.1369400      -42.5519142       1.48576039E+14
   3.30999970       26.6491528      -69.2031784      -42.5540237       1.48934433E+14
   3.31999993       26.7089500      -69.2582245      -42.5492744       1.49268619E+14
   3.32999969       26.7551632      -69.2954407      -42.5402794       1.49526904E+14
   3.33999968       26.7810059      -69.3287735      -42.5477638       1.49671322E+14
   3.35000014       26.7831039      -69.3251724      -42.5420685       1.49683050E+14
   3.35999990       26.7613907      -69.3122482      -42.5508575       1.49561700E+14
   3.37000012       26.7189941      -69.2714767      -42.5524826       1.49324755E+14
   3.38000011       26.6608448      -69.2106323      -42.5497818       1.48999764E+14
   3.39000010       26.5926418      -69.1368942      -42.5442543       1.48618602E+14
   3.39999986       26.5191040      -69.0584564      -42.5393486       1.48207628E+14
   3.41000009       26.4435425      -68.9894409      -42.5458984       1.47785345E+14
   3.42000008       26.3666630      -68.9138794      -42.5472183       1.47355664E+14
   3.43000007       26.2871189      -68.8358231      -42.5487061       1.46911118E+14
   3.44000006       26.2027588      -68.7474136      -42.5446510       1.46439661E+14
   3.45000005       26.1119785      -68.6526108      -42.5406303       1.45932318E+14
   3.45999980       26.0142117      -68.5568619      -42.5426483       1.45385918E+14
   3.47000003       25.9104748      -68.4539566      -42.5434837       1.44806165E+14
   3.48000002       25.8048744      -68.3473740      -42.5425034       1.44216009E+14
   3.49000001       25.7050667      -68.2350082      -42.5299416       1.43658200E+14
   3.50000000       25.6211433      -68.1455917      -42.5244484       1.43189176E+14
   3.50999999       25.5625076      -68.0900116      -42.5275040       1.42861484E+14
   3.51999974       25.5364227      -68.0610504      -42.5246277       1.42715707E+14
   3.52999997       25.5480328      -68.0678253      -42.5197983       1.42780584E+14
   3.53999972       25.5996933      -68.1140213      -42.5143280       1.43069286E+14
   3.54999995       25.6890411      -68.1970291      -42.5079918       1.43568627E+14
   3.56000018       25.8066826      -68.3126297      -42.5059509       1.44226109E+14
   3.56999993       25.9365063      -68.4523315      -42.5158272       1.44951657E+14
   3.57999992       26.0590897      -68.5760040      -42.5169144       1.45636737E+14
   3.58999991       26.1564884      -68.6758118      -42.5193291       1.46181074E+14
   3.59999990       26.2141495      -68.7304077      -42.5162621       1.46503314E+14
   3.60999990       26.2229023      -68.7499008      -42.5270004       1.46552237E+14
   3.62000012       26.1831665      -68.7113571      -42.5281906       1.46330173E+14
   3.62999988       26.1092587      -68.6379395      -42.5286827       1.45917118E+14
   3.63999987       26.0271797      -68.5586548      -42.5314789       1.45458396E+14
   3.64999986       25.9648952      -68.4896622      -42.5247688       1.45110302E+14
   3.65999985       25.9378052      -68.4618988      -42.5240898       1.44958904E+14
   3.66999960       25.9406471      -68.4706573      -42.5300140       1.44974792E+14
   3.68000031       25.9524517      -68.4866180      -42.5341682       1.45040777E+14
   3.69000006       25.9498215      -68.4929810      -42.5431595       1.45026080E+14
   3.70000005       25.9180965      -68.4644928      -42.5463943       1.44848762E+14
   3.71000004       25.8563213      -68.4025040      -42.5461845       1.44503520E+14
   3.72000003       25.7751522      -68.3218842      -42.5467300       1.44049898E+14
   3.72999978       25.6921768      -68.2469635      -42.5547867       1.43586159E+14
   3.74000001       25.6251431      -68.1864700      -42.5613289       1.43211524E+14
   3.75000000       25.5861511      -68.1401825      -42.5540314       1.42993621E+14
   3.75999999       25.5792408      -68.1352921      -42.5560493       1.42955000E+14
   3.77000022       25.6005993      -68.1598969      -42.5592957       1.43074370E+14
   3.77999997       25.6401730      -68.1957779      -42.5556030       1.43295527E+14
   3.78999996       25.6854820      -68.2456284      -42.5601501       1.43548746E+14
   3.79999995       25.7261238      -68.2836761      -42.5575562       1.43775893E+14
   3.81000018       25.7575703      -68.3246155      -42.5670471       1.43951634E+14
   3.81999993       25.7841072      -68.3431549      -42.5590515       1.44099944E+14
   3.83000016       25.8189468      -68.3773422      -42.5583992       1.44294644E+14
   3.83999991       25.8800888      -68.4321213      -42.5520325       1.44636346E+14
   3.84999990       25.9799271      -68.5318146      -42.5518837       1.45194322E+14
   3.85999990       26.1168270      -68.6607895      -42.5439644       1.45959414E+14
   3.86999989       26.2745934      -68.8141327      -42.5395393       1.46841123E+14
   3.87999988       26.4328098      -68.9843979      -42.5515900       1.47725350E+14
   3.89000010       26.5766430      -69.1215363      -42.5448914       1.48529197E+14
   3.89999986       26.7009144      -69.2403412      -42.5394287       1.49223706E+14
   3.90999985       26.8057194      -69.3564148      -42.5506973       1.49809432E+14
   3.91999984       26.8892727      -69.4339142      -42.5446434       1.50276376E+14
   3.92999983       26.9452839      -69.4802856      -42.5349960       1.50589422E+14
   3.93999982       26.9656506      -69.4964294      -42.5307770       1.50703239E+14
   3.95000005       26.9445362      -69.4739685      -42.5294304       1.50585244E+14
   3.95999980       26.8818016      -69.4213104      -42.5395050       1.50234634E+14
   3.96999979       26.7843227      -69.3276978      -42.5433731       1.49689844E+14
   3.97999954       26.6654530      -69.2046661      -42.5392075       1.49025534E+14
   3.98999977       26.5409298      -69.0817261      -42.5407982       1.48329598E+14
   3.99999976       26.4228992      -68.9639893      -42.5410881       1.47669951E+14
   4.01000023       26.3164234      -68.8552551      -42.5388336       1.47074897E+14
   4.02000046       26.2247925      -68.7565918      -42.5317955       1.46562806E+14
   4.03000021       26.1585464      -68.6826477      -42.5241013       1.46192567E+14
   4.03999996       26.1356812      -68.6644211      -42.5287399       1.46064775E+14
   4.04999971       26.1681881      -68.7027969      -42.5346107       1.46246455E+14
   4.05999994       26.2479553      -68.7821198      -42.5341644       1.46692242E+14
   4.06999969       26.3502159      -68.8888779      -42.5386658       1.47263741E+14
   4.08000040       26.4498100      -68.9879227      -42.5381203       1.47820359E+14
   4.09000015       26.5303879      -69.0602951      -42.5299034       1.48270676E+14
   4.09999990       26.5825806      -69.1077423      -42.5251617       1.48562382E+14
   4.10999966       26.6008511      -69.1225510      -42.5217018       1.48664488E+14
   4.11999989       26.5823116      -69.1091080      -42.5267944       1.48560872E+14
   4.12999964       26.5277061      -69.0550308      -42.5273247       1.48255711E+14
   4.14000034       26.4427395      -68.9650879      -42.5223503       1.47780849E+14
   4.15000010       26.3371620      -68.8530655      -42.5158997       1.47190794E+14
   4.15999985       26.2219696      -68.7428894      -42.5209236       1.46547019E+14
   4.16999960       26.1044159      -68.6285629      -42.5241432       1.45890040E+14
   4.17999983       25.9848194      -68.5019684      -42.5171509       1.45221669E+14
   4.18999958       25.8589058      -68.3818665      -42.5229645       1.44517966E+14
   4.19999981       25.7236214      -68.2497330      -42.5261116       1.43761900E+14
   4.21000004       25.5835152      -68.1016312      -42.5181122       1.42978874E+14
   4.21999979       25.4534073      -67.9664917      -42.5130882       1.42251750E+14
   4.23000002       25.3556042      -67.8724747      -42.5168724       1.41705148E+14
   4.23999977       25.3107433      -67.8232498      -42.5125046       1.41454429E+14
   4.25000000       25.3270798      -67.8422241      -42.5151443       1.41545748E+14
   4.25999975       25.3953934      -67.9197006      -42.5243111       1.41927530E+14
   4.26999998       25.4944668      -68.0198135      -42.5253448       1.42481228E+14
   4.27999973       25.6016731      -68.1336136      -42.5319443       1.43080359E+14
   4.28999996       25.6979198      -68.2311020      -42.5331802       1.43618254E+14
   4.29999971       25.7712612      -68.3104706      -42.5392075       1.44028155E+14
   4.30999994       25.8200626      -68.3662796      -42.5462151       1.44300885E+14
   4.31999969       25.8515968      -68.3947525      -42.5431557       1.44477113E+14
   4.32999992       25.8747921      -68.4273071      -42.5525131       1.44606751E+14
   4.34000015       25.8934250      -68.4478683      -42.5544472       1.44710870E+14
   4.35000038       25.9089966      -68.4667206      -42.5577202       1.44797910E+14
   4.36000013       25.9276447      -68.4815521      -42.5539093       1.44902130E+14
   4.36999989       25.9613590      -68.5147095      -42.5533485       1.45090538E+14
   4.37999964       26.0240250      -68.5829544      -42.5589294       1.45440763E+14
   4.38999987       26.1240501      -68.6747742      -42.5507240       1.45999780E+14
   4.40000010       26.2569923      -68.8042831      -42.5472870       1.46742759E+14
   4.41000032       26.4047699      -68.9602814      -42.5555115       1.47568651E+14
   4.42000008       26.5430813      -69.1151962      -42.5721130       1.48341627E+14
   4.42999983       26.6517372      -69.2180099      -42.5662766       1.48948879E+14
   4.44000006       26.7204304      -69.2939224      -42.5734940       1.49332775E+14
   4.44999981       26.7485580      -69.3211594      -42.5726013       1.49489977E+14
   4.46000004       26.7412910      -69.3170547      -42.5757637       1.49449377E+14
   4.47000027       26.7040520      -69.2819977      -42.5779457       1.49241238E+14
   4.48000002       26.6390209      -69.2129440      -42.5739250       1.48877810E+14
   4.48999977       26.5444126      -69.1157303      -42.5713196       1.48349060E+14
   4.50000000       26.4178524      -68.9923019      -42.5744514       1.47641749E+14
   4.50999975       26.2607574      -68.8378372      -42.5770798       1.46763797E+14
   4.51999998       26.0818176      -68.6616592      -42.5798416       1.45763741E+14
   4.52999973       25.8956776      -68.4634933      -42.5678139       1.44723486E+14
   4.53999996       25.7192383      -68.2771683      -42.5579300       1.43737389E+14
   4.54999971       25.5659199      -68.1184845      -42.5525665       1.42880560E+14
   4.55999994       25.4410515      -67.9919281      -42.5508804       1.42182711E+14
   4.56999969       25.3435307      -67.8998489      -42.5563202       1.41637687E+14
   4.57999945       25.2740669      -67.8211517      -42.5470848       1.41249462E+14
   4.58999968       25.2409573      -67.7792587      -42.5383072       1.41064426E+14
   4.59999990       25.2563820      -67.7883453      -42.5319633       1.41150627E+14
   4.61000013       25.3260880      -67.8489075      -42.5228195       1.41540211E+14
   4.61999989       25.4415646      -67.9616699      -42.5201035       1.42185563E+14
   4.62999964       25.5812893      -68.1116409      -42.5303535       1.42966442E+14
   4.63999987       25.7198143      -68.2432327      -42.5234146       1.43740627E+14
   4.64999962       25.8369923      -68.3677521      -42.5307579       1.44395492E+14
   4.65999985       25.9257259      -68.4526291      -42.5269051       1.44891410E+14
   4.67000008       25.9943104      -68.5150375      -42.5207291       1.45274702E+14
   4.67999983       26.0625839      -68.5845108      -42.5219307       1.45656266E+14
   4.68999958       26.1520882      -68.6743851      -42.5222969       1.46156479E+14
   4.69999981       26.2763386      -68.8052216      -42.5288811       1.46850871E+14
   4.70999956       26.4333267      -68.9629517      -42.5296249       1.47728235E+14
   4.71999979       26.6039600      -69.1223221      -42.5183640       1.48681852E+14
   4.73000002       26.7578106      -69.2735443      -42.5157356       1.49541685E+14
   4.73999977       26.8648243      -69.3810730      -42.5162468       1.50139759E+14
   4.74999952       26.9058743      -69.4184113      -42.5125351       1.50369171E+14
   4.75999975       26.8775806      -69.3811722      -42.5035934       1.50211045E+14
   4.76999950       26.7900620      -69.2927856      -42.5027237       1.49721922E+14
   4.77999973       26.6610985      -69.1616745      -42.5005798       1.49001190E+14
   4.78999996       26.5085049      -69.0146408      -42.5061378       1.48148387E+14
   4.80000019       26.3448315      -68.8510895      -42.5062637       1.47233660E+14
   4.81000042       26.1765614      -68.6831894      -42.5066299       1.46293247E+14
   4.81999969       26.0074062      -68.5216064      -42.5142021       1.45347884E+14
   4.83000040       25.8437099      -68.3612213      -42.5175095       1.44433039E+14
   4.84000063       25.6996403      -68.2161789      -42.5165367       1.43627884E+14
   4.85000038       25.5956268      -68.1159744      -42.5203438       1.43046570E+14
   4.86000013       25.5493813      -68.0716858      -42.5223045       1.42788134E+14
   4.86999989       25.5648441      -68.0928955      -42.5280571       1.42874537E+14
   4.88000011       25.6294384      -68.1596146      -42.5301819       1.43235532E+14
   4.89000034       25.7229958      -68.2497711      -42.5267754       1.43758411E+14
   4.90000010       25.8298130      -68.3588028      -42.5289955       1.44355378E+14
   4.91000032       25.9419289      -68.4808655      -42.5389366       1.44981956E+14
   4.92000008       26.0550175      -68.5910263      -42.5360107       1.45613988E+14
   4.93000031       26.1635799      -68.7052460      -42.5416641       1.46220702E+14
   4.93999958       26.2604160      -68.8062668      -42.5458488       1.46761885E+14
   4.95000029       26.3387470      -68.8867416      -42.5479965       1.47199653E+14
   4.96000004       26.3934555      -68.9397278      -42.5462723       1.47505401E+14
   4.97000027       26.4221420      -68.9707565      -42.5486183       1.47665724E+14
   4.98000002       26.4254513      -68.9772644      -42.5518150       1.47684229E+14
   4.98999977       26.4069290      -68.9552612      -42.5483360       1.47580697E+14
   5.00000000       26.3732491      -68.9102554      -42.5370102       1.47392490E+14
   5.00999975       26.3326225      -68.8694458      -42.5368195       1.47165427E+14
   5.02000046       26.2923717      -68.8257370      -42.5333672       1.46940495E+14
   5.02999973       26.2580051      -68.7872009      -42.5291901       1.46748429E+14
   5.03999996       26.2340984      -68.7786942      -42.5446014       1.46614799E+14
   5.05000019       26.2266350      -68.7689133      -42.5422783       1.46573107E+14
   5.05999994       26.2422256      -68.7821045      -42.5398827       1.46660231E+14
   5.06999969       26.2830639      -68.8272400      -42.5441780       1.46888452E+14
   5.07999992       26.3429947      -68.8924637      -42.5494652       1.47223409E+14
   5.09000015       26.4090405      -68.9651184      -42.5560760       1.47592508E+14
   5.10000038       26.4680958      -69.0253906      -42.5572891       1.47922566E+14
   5.10999966       26.5132923      -69.0587158      -42.5454254       1.48175147E+14
   5.11999989       26.5448093      -69.0859375      -42.5411301       1.48351291E+14
   5.12999964       26.5666599      -69.1100922      -42.5434341       1.48473396E+14
   5.14000034       26.5815678      -69.1170197      -42.5354462       1.48556711E+14
   5.14999962       26.5881271      -69.1219940      -42.5338669       1.48593369E+14
   5.15999985       26.5807781      -69.1170425      -42.5362663       1.48552299E+14
   5.17000008       26.5516834      -69.0987854      -42.5470963       1.48389694E+14
   5.17999983       26.4943562      -69.0353165      -42.5409622       1.48069316E+14
   5.18999958       26.4068832      -68.9499207      -42.5430374       1.47580462E+14
   5.19999981       26.2948074      -68.8406143      -42.5458069       1.46954084E+14
   5.21000004       26.1704502      -68.7114182      -42.5409698       1.46259088E+14
   5.21999979       26.0508060      -68.5951462      -42.5443344       1.45590432E+14
   5.22999954       25.9545822      -68.4822769      -42.5276947       1.45052672E+14
   5.23999977       25.8981838      -68.4228745      -42.5246849       1.44737495E+14
   5.24999952       25.8902035      -68.4238739      -42.5336685       1.44692868E+14
   5.26000023       25.9238338      -68.4610443      -42.5372086       1.44880823E+14
   5.26999998       25.9793568      -68.5154419      -42.5360870       1.45191135E+14
   5.27999973       26.0365696      -68.5767517      -42.5401802       1.45510875E+14
   5.28999949       26.0851021      -68.6225052      -42.5373993       1.45782112E+14
   5.29999971       26.1243076      -68.6608124      -42.5365067       1.46001222E+14
   5.31000042       26.1584816      -68.6951828      -42.5367012       1.46192214E+14
   5.31999969       26.1907368      -68.7343903      -42.5436554       1.46372485E+14
   5.32999992       26.2202473      -68.7667465      -42.5465012       1.46537405E+14
   5.33999968       26.2439919      -68.7911301      -42.5471382       1.46670096E+14
   5.34999990       26.2600994      -68.8093491      -42.5492477       1.46760123E+14
   5.35999966       26.2704639      -68.8104858      -42.5400200       1.46818038E+14
   5.36999941       26.2814732      -68.8185654      -42.5370941       1.46879577E+14
   5.38000011       26.3023415      -68.8396606      -42.5373192       1.46996195E+14
   5.38999987       26.3422184      -68.8824310      -42.5402145       1.47219047E+14
   5.39999962       26.4050083      -68.9505386      -42.5455284       1.47569976E+14
   5.40999937       26.4824924      -69.0211182      -42.5386200       1.48003013E+14
   5.41999960       26.5556774      -69.1012344      -42.5455551       1.48412024E+14
   5.43000031       26.6019764      -69.1448669      -42.5428848       1.48670779E+14
   5.43999910       26.6047001      -69.1488571      -42.5441628       1.48685996E+14
   5.45000029       26.5588703      -69.1163483      -42.5574799       1.48429859E+14
   5.46000004       26.4715462      -69.0314713      -42.5599289       1.47941826E+14
   5.47000027       26.3574905      -68.9199142      -42.5624199       1.47304409E+14
   5.48000002       26.2321701      -68.7882080      -42.5560417       1.46604028E+14
   5.48999977       26.1068420      -68.6683044      -42.5614662       1.45903613E+14
   5.50000000       25.9884777      -68.5380173      -42.5495415       1.45242087E+14
   5.51000023       25.8832951      -68.4348679      -42.5515747       1.44654264E+14
   5.52000046       25.7990265      -68.3491745      -42.5501480       1.44183310E+14
   5.52999973       25.7438297      -68.2885056      -42.5446777       1.43874828E+14
   5.53999996       25.7225666      -68.2616806      -42.5391159       1.43756012E+14
   5.54999971       25.7342339      -68.2708969      -42.5366631       1.43821208E+14
   5.56000042       25.7731991      -68.3054123      -42.5322113       1.44038976E+14
   5.57000017       25.8336658      -68.3600922      -42.5264282       1.44376903E+14
   5.57999992       25.9126911      -68.4319458      -42.5192604       1.44818563E+14
   5.59000015       26.0092239      -68.5242310      -42.5150108       1.45358051E+14
   5.59999990       26.1226234      -68.6479568      -42.5253296       1.45991810E+14
   5.60999966       26.2501354      -68.7806931      -42.5305634       1.46704439E+14
   5.61999989       26.3853092      -68.9271393      -42.5418320       1.47459884E+14
   5.63000011       26.5171070      -69.0567169      -42.5396118       1.48196471E+14
   5.64000034       26.6326199      -69.1669159      -42.5342941       1.48842025E+14
   5.64999962       26.7201099      -69.2581863      -42.5380783       1.49330996E+14
   5.65999985       26.7715073      -69.3132248      -42.5417137       1.49618222E+14
   5.66999960       26.7839184      -69.3264694      -42.5425491       1.49687596E+14
   5.68000031       26.7584190      -69.2974548      -42.5390396       1.49545091E+14
   5.69000006       26.7009144      -69.2459717      -42.5450592       1.49223706E+14
   5.69999981       26.6214676      -69.1546326      -42.5331650       1.48779714E+14
   5.71000004       26.5325413      -69.0576782      -42.5251350       1.48282722E+14
   5.71999979       26.4460087      -68.9683838      -42.5223770       1.47799119E+14
   5.73000050       26.3711510      -68.8965454      -42.5253944       1.47380763E+14
   5.73999977       26.3147240      -68.8504639      -42.5357437       1.47065401E+14
   5.75000000       26.2813740      -68.8021622      -42.5207939       1.46879023E+14
   5.75999975       26.2734318      -68.7991714      -42.5257416       1.46834631E+14
   5.76999998       26.2889957      -68.8123322      -42.5233345       1.46921621E+14
   5.77999973       26.3208714      -68.8357849      -42.5149155       1.47099761E+14
   5.78999949       26.3566685      -68.8770294      -42.5203629       1.47299813E+14
   5.80000019       26.3810596      -68.9034195      -42.5223579       1.47436144E+14
   5.80999994       26.3790073      -68.8961716      -42.5171623       1.47424669E+14
   5.81999969       26.3406868      -68.8585510      -42.5178642       1.47210491E+14
   5.82999992       26.2655010      -68.7879333      -42.5224304       1.46790305E+14
   5.83999968       26.1642494      -68.6821823      -42.5179329       1.46224443E+14
   5.85000038       26.0565357      -68.5735321      -42.5169945       1.45622460E+14
   5.85999966       25.9629345      -68.4786530      -42.5157204       1.45099346E+14
   5.86999989       25.8992996      -68.4126740      -42.5133705       1.44743720E+14
   5.87999964       25.8758965      -68.4006042      -42.5247040       1.44612925E+14
   5.88999987       25.8983021      -68.4211655      -42.5228615       1.44738150E+14
   5.90000010       25.9655151      -68.4931641      -42.5276489       1.45113775E+14
   5.90999937       26.0674610      -68.6002960      -42.5328369       1.45683512E+14
   5.92000008       26.1862965      -68.7118683      -42.5255737       1.46347655E+14
   5.92999983       26.3025112      -68.8263092      -42.5237999       1.46997168E+14
   5.94000006       26.4018402      -68.9341278      -42.5322914       1.47552276E+14
   5.94999933       26.4796925      -69.0112686      -42.5315742       1.47987360E+14
   5.95999956       26.5397301      -69.0770874      -42.5373535       1.48322887E+14
   5.97000027       26.5890388      -69.1284714      -42.5394363       1.48598470E+14
   5.98000002       26.6339703      -69.1687851      -42.5348167       1.48849574E+14
   5.98999977       26.6773682      -69.2204361      -42.5430679       1.49092122E+14
   5.99999952       26.7188263      -69.2642517      -42.5454254       1.49323816E+14
   6.00999975       26.7573109      -69.3079681      -42.5506554       1.49538900E+14
   6.01999950       26.7939167      -69.3566513      -42.5627365       1.49743464E+14
   6.02999926       26.8319435      -69.3961334      -42.5641899       1.49955998E+14
   6.03999996       26.8758202      -69.4366989      -42.5608788       1.50201214E+14
   6.04999971       26.9284058      -69.4878922      -42.5594902       1.50495084E+14
   6.05999994       26.9872322      -69.5400696      -42.5528374       1.50823850E+14
   6.06999922       27.0433979      -69.5986176      -42.5552177       1.51137752E+14
   6.07999992       27.0837708      -69.6358109      -42.5520363       1.51363388E+14
   6.08999968       27.0952682      -69.6461334      -42.5508652       1.51427645E+14
   6.10000038       27.0674896      -69.6187820      -42.5512924       1.51272406E+14
   6.11000061       26.9953880      -69.5356598      -42.5402718       1.50869450E+14
   6.11999989       26.8808098      -69.4183807      -42.5375710       1.50229098E+14
   6.13000011       26.7334690      -69.2695770      -42.5361061       1.49405655E+14
   6.13999987       26.5709229      -69.1131897      -42.5422630       1.48497219E+14
   6.15000057       26.4148998      -68.9610825      -42.5461807       1.47625257E+14
   6.15999985       26.2852840      -68.8362656      -42.5509758       1.46900884E+14
   6.17000008       26.1945515      -68.7464294      -42.5518799       1.46393793E+14
   6.18000031       26.1455326      -68.6913910      -42.5458603       1.46119837E+14
   6.19000006       26.1313419      -68.6719360      -42.5405960       1.46040531E+14
   6.19999981       26.1374187      -68.6797943      -42.5423737       1.46074489E+14
   6.20999956       26.1458683      -68.6891708      -42.5433006       1.46121716E+14
   6.22000027       26.1419582      -68.6938477      -42.5518913       1.46099872E+14
   6.23000050       26.1208344      -68.6663971      -42.5455627       1.45981811E+14
   6.23999977       26.0914097      -68.6522903      -42.5608826       1.45817361E+14
   6.25000000       26.0685883      -68.6380920      -42.5695076       1.45689821E+14
   6.25999975       26.0601902      -68.6248169      -42.5646248       1.45642878E+14
   6.27000046       26.0650482      -68.6352844      -42.5702400       1.45670023E+14
   6.27999973       26.0832596      -68.6503525      -42.5670967       1.45771811E+14
   6.28999996       26.1191063      -68.6814041      -42.5622940       1.45972148E+14
   6.30000019       26.1731205      -68.7443466      -42.5712242       1.46274020E+14
   6.30999994       26.2365761      -68.8108215      -42.5742493       1.46628640E+14
   6.32000017       26.2949905      -68.8604889      -42.5654945       1.46955125E+14
   6.32999945       26.3344307      -68.8989487      -42.5645180       1.47175544E+14
   6.34000015       26.3443127      -68.9054871      -42.5611725       1.47230757E+14
   6.34999990       26.3174877      -68.8685760      -42.5510864       1.47080853E+14
   6.36000013       26.2513294      -68.8023071      -42.5509758       1.46711100E+14
   6.36999989       26.1502876      -68.6906662      -42.5403786       1.46146412E+14
   6.37999964       26.0269737      -68.5684891      -42.5415192       1.45457238E+14
   6.39000034       25.9006462      -68.4322968      -42.5316467       1.44751236E+14
   6.40000010       25.7926388      -68.3145676      -42.5219307       1.44147609E+14
   6.40999985       25.7207489      -68.2354202      -42.5146675       1.43745845E+14
   6.41999960       25.6956329      -68.2089539      -42.5133209       1.43605486E+14
   6.42999983       25.7207108      -68.2344055      -42.5136948       1.43745643E+14
   6.44000006       25.7936630      -68.2966614      -42.5029945       1.44153346E+14
   6.44999933       25.9090042      -68.4051208      -42.4961166       1.44797961E+14
   6.46000004       26.0583782      -68.5595551      -42.5011749       1.45632744E+14
   6.46999979       26.2304668      -68.7445145      -42.5140495       1.46594515E+14
   6.48000002       26.4106693      -68.9174423      -42.5067711       1.47601601E+14
   6.49000025       26.5815792      -69.0907364      -42.5091553       1.48556778E+14
   6.49999952       26.7257404      -69.2376633      -42.5119247       1.49362454E+14
   6.50999975       26.8286190      -69.3286667      -42.5000496       1.49937409E+14
   6.51999998       26.8827114      -69.3836136      -42.5009041       1.50239718E+14
   6.53000021       26.8890362      -69.3952866      -42.5062523       1.50275067E+14
   6.53999949       26.8563900      -69.3712997      -42.5149078       1.50092615E+14
   6.54999971       26.7988682      -69.3221588      -42.5232887       1.49771147E+14
   6.55999994       26.7335930      -69.2518768      -42.5182800       1.49406343E+14
   6.56999969       26.6743698      -69.2007217      -42.5263519       1.49075362E+14
   6.57999992       26.6215687      -69.1478958      -42.5263252       1.48780268E+14
   6.58999968       26.5628853      -69.0973434      -42.5344620       1.48452307E+14
   6.59999990       26.4833984      -69.0224457      -42.5390472       1.48008079E+14
   6.60999966       26.3759785      -68.9056473      -42.5296669       1.47407740E+14
   6.61999941       26.2460976      -68.7748489      -42.5287514       1.46681874E+14
   6.62999964       26.1126957      -68.6404648      -42.5277672       1.45936328E+14
   6.63999987       26.0017109      -68.5274506      -42.5257416       1.45316074E+14
   6.65000010       25.9344120      -68.4610596      -42.5266495       1.44939963E+14
   6.65999937       25.9143200      -68.4403076      -42.5259895       1.44827673E+14
   6.66999960       25.9256973      -68.4572906      -42.5315895       1.44891242E+14
   6.67999935       25.9469109      -68.4747086      -42.5278015       1.45009790E+14
   6.68999958       25.9648132      -68.4960556      -42.5312424       1.45109849E+14
   6.70000029       25.9795990      -68.5023346      -42.5227356       1.45192494E+14
   6.70999956       26.0013962      -68.5283737      -42.5269737       1.45314296E+14
   6.71999979       26.0421028      -68.5624390      -42.5203362       1.45541795E+14
   6.73000002       26.1088619      -68.6343613      -42.5255013       1.45914904E+14
   6.74000025       26.2006607      -68.7276382      -42.5269814       1.46427934E+14
   6.74999952       26.3075733      -68.8358002      -42.5282249       1.47025438E+14
   6.76000023       26.4132557      -68.9405975      -42.5273438       1.47616063E+14
   6.77000046       26.5012245      -69.0298080      -42.5285835       1.48107703E+14
   6.78000021       26.5596695      -69.0829315      -42.5232620       1.48434321E+14
   6.78999996       26.5828781      -69.1083298      -42.5254517       1.48564043E+14
   6.79999971       26.5708427      -69.1039658      -42.5331230       1.48496783E+14
   6.81000042       26.5289898      -69.0607529      -42.5317612       1.48262858E+14
   6.82000017       26.4679337      -69.0023651      -42.5344353       1.47921643E+14
   6.82999992       26.4011650      -68.9434738      -42.5423088       1.47548484E+14
   6.84000015       26.3400364      -68.8800812      -42.5400467       1.47206867E+14
   6.84999990       26.2895126      -68.8295212      -42.5400047       1.46924506E+14
   6.86000013       26.2482910      -68.7986755      -42.5503845       1.46694138E+14
   6.86999941       26.2131939      -68.7557068      -42.5425186       1.46497962E+14
   6.88000011       26.1826820      -68.7349777      -42.5522957       1.46327472E+14
   6.89000034       26.1594486      -68.7123108      -42.5528641       1.46197617E+14
   6.90000010       26.1494865      -68.7026367      -42.5531540       1.46141933E+14
   6.91000032       26.1603355      -68.7118759      -42.5515404       1.46202583E+14
   6.91999960       26.1963997      -68.7534866      -42.5570908       1.46404110E+14
   6.93000031       26.2575512      -68.8213959      -42.5638428       1.46745879E+14
   6.94000006       26.3384666      -68.8972092      -42.5587425       1.47198092E+14
   6.95000029       26.4308243      -68.9933701      -42.5625420       1.47714243E+14
   6.96000004       26.5248318      -69.0861130      -42.5612793       1.48239622E+14
   6.96999979       26.6103973      -69.1592941      -42.5488968       1.48717840E+14
   6.98000002       26.6782303      -69.2269363      -42.5487061       1.49096938E+14
   6.98999977       26.7221260      -69.2733002      -42.5511780       1.49342254E+14
   7.00000000       26.7388458      -69.2874680      -42.5486259       1.49435703E+14
   7.00999975       26.7280216      -69.2705154      -42.5424919       1.49375204E+14
   7.01999998       26.6921730      -69.2331696      -42.5409966       1.49174851E+14
   7.03000021       26.6355267      -69.1723099      -42.5367813       1.48858282E+14
   7.03999949       26.5630150      -69.0965271      -42.5335121       1.48453028E+14
   7.04999971       26.4781151      -69.0118637      -42.5337524       1.47978552E+14
   7.05999994       26.3825264      -68.9238205      -42.5412903       1.47444331E+14
   7.07000017       26.2773991      -68.8187180      -42.5413246       1.46856793E+14
   7.07999945       26.1649113      -68.6967163      -42.5318031       1.46228134E+14
   7.08999968       26.0496387      -68.5773544      -42.5277138       1.45583906E+14
   7.09999990       25.9366112      -68.4676971      -42.5310822       1.44952244E+14
   7.10999966       25.8287354      -68.3659210      -42.5371895       1.44349355E+14
   7.12000036       25.7287407      -68.2663345      -42.5375977       1.43790505E+14
   7.12999964       25.6434975      -68.1745682      -42.5310707       1.43314116E+14
   7.13999987       25.5849113      -68.1205978      -42.5356903       1.42986692E+14
   7.15000010       25.5646973      -68.1026154      -42.5379181       1.42873714E+14
   7.15999985       25.5880623      -68.1349258      -42.5468636       1.43004308E+14
   7.16999960       25.6512947      -68.1960144      -42.5447235       1.43357704E+14
   7.17999983       25.7440071      -68.2922363      -42.5482330       1.43875834E+14
   7.19000006       25.8524303      -68.3926697      -42.5402412       1.44481760E+14
   7.19999981       25.9626026      -68.5016937      -42.5390968       1.45097484E+14
   7.20999956       26.0638371      -68.6057358      -42.5419006       1.45663262E+14
   7.21999979       26.1501827      -68.6902390      -42.5400581       1.46145825E+14
   7.22999954       26.2204266      -68.7632980      -42.5428734       1.46538412E+14
   7.24000025       26.2776546      -68.8191528      -42.5414963       1.46858236E+14
   7.24999952       26.3271599      -68.8625488      -42.5353889       1.47134909E+14
   7.25999975       26.3736191      -68.9170151      -42.5433998       1.47394553E+14
   7.26999950       26.4191494      -68.9700699      -42.5509224       1.47648997E+14
   7.27999973       26.4626141      -69.0156326      -42.5530205       1.47891914E+14
   7.28999949       26.5002174      -69.0582504      -42.5580330       1.48102065E+14
   7.29999971       26.5251961      -69.0809174      -42.5557175       1.48241669E+14
   7.30999994       26.5287609      -69.0935974      -42.5648422       1.48261583E+14
   7.31999969       26.5045528      -69.0706177      -42.5660667       1.48126292E+14
   7.32999945       26.4546928      -69.0158615      -42.5611687       1.47847639E+14
   7.33999920       26.3948231      -68.9567871      -42.5619621       1.47513068E+14
   7.34999943       26.3486042      -68.9109497      -42.5623436       1.47254749E+14
   7.36000061       26.3316631      -68.8959732      -42.5643082       1.47160058E+14
   7.37000036       26.3409462      -68.9128952      -42.5719490       1.47211967E+14
   7.38000011       26.3633118      -68.9235764      -42.5602608       1.47336940E+14
   7.38999987       26.3896751      -68.9483643      -42.5586853       1.47484278E+14
   7.40000010       26.4175396      -68.9787903      -42.5612450       1.47640021E+14
   7.41000032       26.4433537      -68.9923859      -42.5490341       1.47784288E+14
   7.42000008       26.4580917      -68.9993515      -42.5412636       1.47866648E+14
   7.43000031       26.4499836      -68.9924774      -42.5424919       1.47821332E+14
   7.44000006       26.4097290      -68.9511948      -42.5414619       1.47596367E+14
   7.45000029       26.3340893      -68.8811264      -42.5470352       1.47173631E+14
   7.45999956       26.2265015      -68.7746429      -42.5481453       1.46572352E+14
   7.47000027       26.0958366      -68.6374435      -42.5416069       1.45842107E+14
   7.48000002       25.9551392      -68.5018463      -42.5467033       1.45055793E+14
   7.49000025       25.8196468      -68.3554993      -42.5358582       1.44298553E+14
   7.50000000       25.7045536      -68.2416840      -42.5371284       1.43655331E+14
   7.50999975       25.6246643      -68.1577377      -42.5330734       1.43208856E+14
   7.51999998       25.5946579      -68.1123352      -42.5176773       1.43041168E+14
   7.52999973       25.6261787      -68.1559982      -42.5298157       1.43217312E+14
   7.54000044       25.7238445      -68.2577438      -42.5339012       1.43763159E+14
   7.54999971       25.8805656      -68.4159927      -42.5354309       1.44639013E+14
   7.55999994       26.0777111      -68.6213684      -42.5436630       1.45740806E+14
   7.57000017       26.2861500      -68.8371277      -42.5509796       1.46905716E+14
   7.57999992       26.4709988      -69.0146484      -42.5436478       1.47938773E+14
   7.58999968       26.5985603      -69.1367722      -42.5382118       1.48651687E+14
   7.59999990       26.6445293      -69.1776657      -42.5331345       1.48908597E+14
   7.61000013       26.6014938      -69.1333618      -42.5318718       1.48668078E+14
   7.62000036       26.4816494      -69.0090256      -42.5273781       1.47998298E+14
   7.62999964       26.3108673      -68.8299255      -42.5190620       1.47043843E+14
   7.63999987       26.1177807      -68.6310654      -42.5132828       1.45964749E+14
   7.64999962       25.9235668      -68.4371567      -42.5135880       1.44879330E+14
   7.66000032       25.7411003      -68.2476501      -42.5065498       1.43859594E+14
   7.66999960       25.5811195      -68.0829544      -42.5018349       1.42965503E+14
   7.67999983       25.4568462      -67.9659958      -42.5091476       1.42270976E+14
   7.69000006       25.3812428      -67.8885574      -42.5073128       1.41848442E+14
   7.69999981       25.3658409      -67.8730240      -42.5071869       1.41762375E+14
   7.70999956       25.4203854      -67.9295654      -42.5091782       1.42067200E+14
   7.71999979       25.5502396      -68.0627747      -42.5125389       1.42792915E+14
   7.73000002       25.7502747      -68.2688904      -42.5186119       1.43910865E+14
   7.73999977       26.0009193      -68.5222473      -42.5213318       1.45311645E+14
   7.75000000       26.2711182      -68.7973328      -42.5262184       1.46821695E+14
   7.75999975       26.5258541      -69.0510788      -42.5252228       1.48245343E+14
   7.76999950       26.7343731      -69.2581940      -42.5238228       1.49410705E+14
   7.78000021       26.8754311      -69.3937759      -42.5183411       1.50199033E+14
   7.78999996       26.9409580      -69.4696045      -42.5286484       1.50565246E+14
   7.79999971       26.9366035      -69.4712372      -42.5346336       1.50540902E+14
   7.80999947       26.8785763      -69.4187469      -42.5401726       1.50216615E+14
   7.81999969       26.7885227      -69.3301544      -42.5416298       1.49713332E+14
   7.83000040       26.6880283      -69.2295151      -42.5414925       1.49151682E+14
   7.83999968       26.5940018      -69.1214142      -42.5274162       1.48626202E+14
   7.84999990       26.5164757      -69.0435257      -42.5270500       1.48192931E+14
   7.85999966       26.4574623      -68.9850082      -42.5275497       1.47863124E+14
   7.86999989       26.4115467      -68.9483032      -42.5367584       1.47606517E+14
   7.87999964       26.3689823      -68.9091873      -42.5401993       1.47368633E+14
   7.88999939       26.3206635      -68.8618698      -42.5412025       1.47098603E+14
   7.90000010       26.2618027      -68.8181839      -42.5563812       1.46769636E+14
   7.90999985       26.1941528      -68.7437668      -42.5496178       1.46391578E+14
   7.91999960       26.1255531      -68.6761627      -42.5506096       1.46008185E+14
   7.92999935       26.0655041      -68.6206665      -42.5551605       1.45672574E+14
   7.93999958       26.0201015      -68.5686264      -42.5485191       1.45418835E+14
   7.95000029       25.9891109      -68.5287323      -42.5396194       1.45245644E+14
   7.95999908       25.9669380      -68.5139542      -42.5470161       1.45121727E+14
   7.96999979       25.9481316      -68.4888153      -42.5406799       1.45016618E+14
   7.97999954       25.9309578      -68.4720993      -42.5411377       1.44920636E+14
   7.98999977       25.9168758      -68.4610825      -42.5442085       1.44841950E+14
   7.99999952       25.9072075      -68.4430847      -42.5358772       1.44787894E+14
   8.01000023       25.9019585      -68.4430542      -42.5410995       1.44758568E+14
   8.02000046       25.9006310      -68.4400940      -42.5394630       1.44751152E+14
   8.02999973       25.9022655      -68.4373474      -42.5350800       1.44760279E+14
   8.04000092       25.9038258      -68.4421768      -42.5383492       1.44769020E+14
   8.05000019       25.9009228      -68.4357910      -42.5348663       1.44752796E+14
   8.06000042       25.8919716      -68.4340744      -42.5421028       1.44702767E+14
   8.06999969       25.8812389      -68.4189835      -42.5377464       1.44642771E+14
   8.07999992       25.8767395      -68.4121857      -42.5354462       1.44617622E+14
   8.09000015       25.8844585      -68.4237213      -42.5392685       1.44660773E+14
   8.09999943       25.9038143      -68.4436874      -42.5398750       1.44768936E+14
   8.11000061       25.9284916      -68.4697342      -42.5412445       1.44906861E+14
   8.11999989       25.9515438      -68.4912872      -42.5397453       1.45035694E+14
   8.13000011       25.9706936      -68.5120239      -42.5413284       1.45142716E+14
   8.13999939       25.9880924      -68.5323334      -42.5442390       1.45239939E+14
   8.14999962       26.0090408      -68.5655212      -42.5564804       1.45357028E+14
   8.16000080       26.0400562      -68.5917816      -42.5517235       1.45530370E+14
   8.17000008       26.0882015      -68.6359482      -42.5477486       1.45799426E+14
   8.18000031       26.1586723      -68.7058640      -42.5471954       1.46193271E+14
   8.18999958       26.2521687      -68.7954330      -42.5432663       1.46715798E+14
   8.19999981       26.3650913      -68.9053116      -42.5402222       1.47346889E+14
   8.21000004       26.4912052      -69.0383682      -42.5471687       1.48051700E+14
   8.21999931       26.6218357      -69.1633987      -42.5415611       1.48781761E+14
   8.23000050       26.7460289      -69.2891922      -42.5431633       1.49475851E+14
   8.23999977       26.8502216      -69.4039078      -42.5536842       1.50058155E+14
   8.25000000       26.9207077      -69.4763794      -42.5556755       1.50452067E+14
   8.25999928       26.9465618      -69.5054550      -42.5588951       1.50596552E+14
   8.26999950       26.9233456      -69.4858322      -42.5624886       1.50466814E+14
   8.28000069       26.8553772      -69.4259796      -42.5705986       1.50086961E+14
   8.28999996       26.7555313      -69.3288269      -42.5732956       1.49528951E+14
   8.30000019       26.6424885      -69.2055054      -42.5630150       1.48897188E+14
   8.30999947       26.5350399      -69.0935898      -42.5585556       1.48296681E+14
   8.31999969       26.4457855      -69.0003357      -42.5545464       1.47797861E+14
   8.32999992       26.3753128      -68.9326935      -42.5573807       1.47404016E+14
   8.33999920       26.3123627      -68.8609924      -42.5486298       1.47052198E+14
   8.35000038       26.2398930      -68.7894287      -42.5495338       1.46647196E+14
   8.35999966       26.1452312      -68.7000046      -42.5547714       1.46118160E+14
   8.36999989       26.0300503      -68.5771179      -42.5470657       1.45474435E+14
   8.37999916       25.9118233      -68.4584122      -42.5465927       1.44813698E+14
   8.38999939       25.8156948      -68.3516541      -42.5359612       1.44276474E+14
   8.39999962       25.7609253      -68.3020782      -42.5411530       1.43970374E+14
   8.40999985       25.7554264      -68.2900848      -42.5346642       1.43939655E+14
   8.42000008       25.7980518      -68.3316269      -42.5335732       1.44177875E+14
   8.42999935       25.8807030      -68.4160461      -42.5353394       1.44639785E+14
   8.43999958       25.9898777      -68.5210495      -42.5311737       1.45249922E+14
   8.44999981       26.1086006      -68.6424561      -42.5338516       1.45913444E+14
   8.46000004       26.2196980      -68.7501144      -42.5304184       1.46534335E+14
   8.46999931       26.3087540      -68.8431854      -42.5344353       1.47032048E+14
   8.47999954       26.3668251      -68.9095917      -42.5427666       1.47356587E+14
   8.48999977       26.3902416      -68.9313126      -42.5410690       1.47487449E+14
   8.50000000       26.3788490      -68.9247131      -42.5458641       1.47423779E+14
   8.50999928       26.3343487      -68.8800888      -42.5457382       1.47175074E+14
   8.51999950       26.2611618      -68.8058853      -42.5447235       1.46766045E+14
   8.52999973       26.1661949      -68.7068405      -42.5406456       1.46235298E+14
   8.53999996       26.0586185      -68.6016998      -42.5430794       1.45634103E+14
   8.54999924       25.9494114      -68.4903717      -42.5409622       1.45023765E+14
   8.55999947       25.8505974      -68.3916702      -42.5410728       1.44471526E+14
   8.56999969       25.7748222      -68.3118744      -42.5370560       1.44048053E+14
   8.57999992       25.7329731      -68.2658005      -42.5328331       1.43814161E+14
   8.58999920       25.7314034      -68.2684097      -42.5370102       1.43805387E+14
   8.59999943       25.7684917      -68.3065186      -42.5380287       1.44012669E+14
   8.60999966       25.8329048      -68.3744736      -42.5415688       1.44372641E+14
   8.61999989       25.9038620      -68.4496002      -42.5457382       1.44769204E+14
   8.63000011       25.9552555      -68.4985886      -42.5433350       1.45056447E+14
   8.63999939       25.9620819      -68.5086517      -42.5465698       1.45094582E+14
   8.65000057       25.9085541      -68.4546661      -42.5461121       1.44795444E+14
   8.65999985       25.7935867      -68.3350525      -42.5414619       1.44152927E+14
   8.67000008       25.6342735      -68.1671600      -42.5328865       1.43262560E+14
   8.68000031       25.4625950      -67.9918442      -42.5292435       1.42303105E+14
   8.68999958       25.3157578      -67.8395309      -42.5237770       1.41482464E+14
   8.70000076       25.2232800      -67.7421570      -42.5188789       1.40965642E+14
   8.71000004       25.1988773      -67.7168350      -42.5179558       1.40829260E+14
   8.72000027       25.2406883      -67.7680893      -42.5274010       1.41062933E+14
   8.72999954       25.3361530      -67.8575516      -42.5214005       1.41596448E+14
   8.73999977       25.4665031      -67.9876480      -42.5211449       1.42324949E+14
   8.75000000       25.6102581      -68.1290970      -42.5188408       1.43128342E+14
   8.75999928       25.7470837      -68.2612991      -42.5142136       1.43893014E+14
   8.77000046       25.8618946      -68.3738098      -42.5119171       1.44534676E+14
   8.77999973       25.9472961      -68.4655609      -42.5182648       1.45011971E+14
   8.78999996       26.0041065      -68.5281830      -42.5240746       1.45329446E+14
   8.80000019       26.0390606      -68.5608215      -42.5217628       1.45524800E+14
   8.80999947       26.0615730      -68.5781097      -42.5165367       1.45650612E+14
   8.82000065       26.0776196      -68.5951614      -42.5175438       1.45740303E+14
   8.82999992       26.0869083      -68.6036148      -42.5167046       1.45792212E+14
   8.84000015       26.0844917      -68.6202316      -42.5357437       1.45778706E+14
   8.84999943       26.0661888      -68.6110001      -42.5448074       1.45676399E+14
   8.85999966       26.0328884      -68.5666809      -42.5337906       1.45490289E+14
   8.86999989       25.9903717      -68.5266266      -42.5362587       1.45252690E+14
   8.88000011       25.9463825      -68.4809494      -42.5345650       1.45006854E+14
   8.89000034       25.9073181      -68.4429626      -42.5356407       1.44788532E+14
   8.89999962       25.8776340      -68.4125748      -42.5349388       1.44622639E+14
   8.90999985       25.8595467      -68.3971863      -42.5376358       1.44521539E+14
   8.92000008       25.8519154      -68.3830795      -42.5311584       1.44478891E+14
   8.92999935       25.8493824      -68.3754501      -42.5260696       1.44464731E+14
   8.94000053       25.8453026      -68.3667603      -42.5214577       1.44441948E+14
   8.94999981       25.8371620      -68.3574066      -42.5202484       1.44396448E+14
   8.96000004       25.8290291      -68.3514328      -42.5224037       1.44350999E+14
   8.96999931       25.8300858      -68.3499908      -42.5199051       1.44356904E+14
   8.97999954       25.8509159      -68.3700867      -42.5191727       1.44473305E+14
   8.98999977       25.8981781      -68.4181061      -42.5199242       1.44737445E+14
   9.00000000       25.9702435      -68.4922943      -42.5220528       1.45140199E+14
   9.01000023       26.0568638      -68.5906677      -42.5338020       1.45624306E+14
   9.01999950       26.1445332      -68.6873169      -42.5427895       1.46114251E+14
   9.02999973       26.2238846      -68.7659302      -42.5420456       1.46557723E+14
   9.03999996       26.2919464      -68.8318024      -42.5398521       1.46938113E+14
   9.05000019       26.3466759      -68.8881226      -42.5414505       1.47243978E+14
   9.05999947       26.3808289      -68.9187317      -42.5379028       1.47434852E+14
   9.06999969       26.3847103      -68.9240265      -42.5393143       1.47456545E+14
   9.07999992       26.3546410      -68.8891678      -42.5345230       1.47288488E+14
   9.09000015       26.2954636      -68.8330307      -42.5375633       1.46957759E+14
   9.09999943       26.2176018      -68.7655869      -42.5479851       1.46522608E+14
   9.10999966       26.1329288      -68.6780472      -42.5451202       1.46049407E+14
   9.11999989       26.0507336      -68.5885773      -42.5378494       1.45590030E+14
   9.13000011       25.9785156      -68.5245590      -42.5460434       1.45186437E+14
   9.13999939       25.9239483      -68.4782867      -42.5543365       1.44881477E+14
   9.15000057       25.8935814      -68.4497223      -42.5561409       1.44711759E+14
   9.15999889       25.8870373      -68.4380951      -42.5510597       1.44675185E+14
   9.17000008       25.8911171      -68.4367523      -42.5456390       1.44697985E+14
   9.17999935       25.8851547      -68.4257736      -42.5406151       1.44664666E+14
   9.18999958       25.8542099      -68.3976974      -42.5434875       1.44491709E+14
   9.19999981       25.7982521      -68.3294220      -42.5311661       1.44178982E+14
   9.20999908       25.7316837      -68.2592773      -42.5275955       1.43806964E+14
   9.22000027       25.6749630      -68.1974792      -42.5225182       1.43489975E+14
   9.22999954       25.6461277      -68.1694260      -42.5233002       1.43328813E+14
   9.23999977       25.6553993      -68.1778641      -42.5224648       1.43380638E+14
   9.25000000       25.7050591      -68.2245331      -42.5194702       1.43658150E+14
   9.25999928       25.7929115      -68.3169785      -42.5240669       1.44149135E+14
   9.27000046       25.9160652      -68.4461746      -42.5301094       1.44837404E+14
   9.27999973       26.0713482      -68.5987167      -42.5273705       1.45705239E+14
   9.28999996       26.2521114      -68.7831726      -42.5310631       1.46715479E+14
   9.29999924       26.4458122      -68.9706573      -42.5248451       1.47798012E+14
   9.30999947       26.6366730      -69.1656952      -42.5290222       1.48864691E+14
   9.31999969       26.8110657      -69.3404541      -42.5293884       1.49839313E+14
   9.32999897       26.9619274      -69.4903259      -42.5283966       1.50682435E+14
   9.34000015       27.0880451      -69.6135941      -42.5255470       1.51387262E+14
   9.34999943       27.1887398      -69.7095261      -42.5207863       1.51950021E+14
   9.35999966       27.2568226      -69.7813721      -42.5245514       1.52330528E+14
   9.36999989       27.2787991      -69.7958908      -42.5170937       1.52453337E+14
   9.37999916       27.2417450      -69.7567062      -42.5149651       1.52246256E+14
   9.38999939       27.1415043      -69.6596375      -42.5181351       1.51686031E+14
   9.39999962       26.9853935      -69.5108566      -42.5254631       1.50813582E+14
   9.40999985       26.7898293      -69.3140335      -42.5242081       1.49720631E+14
   9.41999912       26.5753593      -69.0909653      -42.5156097       1.48522016E+14
   9.42999935       26.3602695      -68.8717194      -42.5114517       1.47319945E+14
   9.43999958       26.1566696      -68.6666718      -42.5099983       1.46182081E+14
   9.44999981       25.9716625      -68.4785614      -42.5069008       1.45148135E+14
   9.46000004       25.8112812      -68.3268738      -42.5155869       1.44251812E+14
   9.46999931       25.6821499      -68.1942215      -42.5120697       1.43530123E+14
   9.47999954       25.5894604      -68.0987396      -42.5092812       1.43012110E+14
   9.48999882       25.5335579      -68.0337448      -42.5001869       1.42699684E+14
   9.49999905       25.5063629      -68.0063324      -42.4999695       1.42547700E+14
   9.51000023       25.4923668      -67.9971085      -42.5047417       1.42469484E+14
   9.51999950       25.4764175      -67.9834442      -42.5070267       1.42380347E+14
   9.52999973       25.4499168      -67.9603195      -42.5104027       1.42232238E+14
   9.53999901       25.4130268      -67.9351273      -42.5221024       1.42026079E+14
   9.54999924       25.3715057      -67.8907013      -42.5191956       1.41794017E+14
   9.55999947       25.3313484      -67.8454285      -42.5140839       1.41569588E+14
   9.56999874       25.2952728      -67.8091431      -42.5138664       1.41367976E+14
   9.57999992       25.2638092      -67.7717361      -42.5079269       1.41192151E+14
   9.58999920       25.2402763      -67.7447128      -42.5044365       1.41060618E+14
   9.60000038       25.2362251      -67.7246857      -42.4884644       1.41037985E+14
   9.61000061       25.2666702      -67.7504196      -42.4837532       1.41208123E+14
   9.62000084       25.3389950      -67.8192520      -42.4802551       1.41612336E+14
   9.63000011       25.4460506      -67.9272079      -42.4811554       1.42210645E+14
   9.63999939       25.5711479      -68.0491943      -42.4780502       1.42909769E+14
   9.65000057       25.6945343      -68.1775284      -42.4829903       1.43599346E+14
   9.66000080       25.7953987      -68.2879181      -42.4925156       1.44163044E+14
   9.67000008       25.8551140      -68.3507309      -42.4956169       1.44496776E+14
   9.68000126       25.8640575      -68.3590469      -42.4949913       1.44546755E+14
   9.69000053       25.8255653      -68.3100357      -42.4844742       1.44331638E+14
   9.70000076       25.7538967      -68.2406311      -42.4867287       1.43931099E+14
   9.70999908       25.6681480      -68.1537018      -42.4855576       1.43451874E+14
   9.72000027       25.5870686      -68.0767975      -42.4897346       1.42998755E+14
   9.73000050       25.5242252      -68.0149841      -42.4907570       1.42647541E+14
   9.73999977       25.4850693      -67.9821854      -42.4971199       1.42428699E+14
   9.75000095       25.4684258      -67.9622116      -42.4937859       1.42335686E+14
   9.76000023       25.4721527      -67.9602814      -42.4881325       1.42356506E+14
   9.77000046       25.4979839      -67.9867325      -42.4887466       1.42500891E+14
   9.78000069       25.5506096      -68.0425720      -42.4919624       1.42794996E+14
   9.78999996       25.6322689      -68.1142807      -42.4820099       1.43251353E+14
   9.80000019       25.7384014      -68.2212372      -42.4828415       1.43844495E+14
   9.80999947       25.8570595      -68.3463211      -42.4892616       1.44507648E+14
   9.82000065       25.9734097      -68.4691925      -42.4957848       1.45157899E+14
   9.82999992       26.0728359      -68.5742035      -42.5013618       1.45713560E+14
   9.84000015       26.1423054      -68.6456451      -42.5033417       1.46101802E+14
   9.85000038       26.1714249      -68.6789474      -42.5075264       1.46264541E+14
   9.86000061       26.1553860      -68.6538925      -42.4985123       1.46174900E+14
   9.87000084       26.0975494      -68.5902863      -42.4927368       1.45851670E+14
   9.87999916       26.0077038      -68.4871140      -42.4794083       1.45349545E+14
   9.89000034       25.8973160      -68.3816299      -42.4843178       1.44732613E+14
   9.90000057       25.7747860      -68.2662735      -42.4914894       1.44047851E+14
   9.90999985       25.6458321      -68.1397018      -42.4938698       1.43327169E+14
   9.92000008       25.5182381      -68.0062103      -42.4879723       1.42614070E+14
   9.93000031       25.4075146      -67.8903198      -42.4828033       1.41995276E+14
   9.94000053       25.3357697      -67.8143387      -42.4785690       1.41594318E+14
   9.94999981       25.3221340      -67.8014069      -42.4792709       1.41518115E+14
   9.96000004       25.3735943      -67.8650742      -42.4914818       1.41805694E+14
   9.97000027       25.4837513      -67.9727936      -42.4890404       1.42421334E+14
   9.97999954       25.6403484      -68.1348953      -42.4945412       1.43296500E+14
   9.98999977       25.8337574      -68.3301086      -42.4963531       1.44377406E+14
   10.0000000       26.0585461      -68.5550079      -42.4964638       1.45633701E+14
   10.0000000       16.8912201      -68.8149567      -51.9237328       9.44001599E+13
   10.0100002       17.1614933      -69.0901413      -51.9286499       9.59106295E+13
   10.0199995       17.5332222      -69.4609528      -51.9277306       9.79881102E+13
   10.0300007       17.9556980      -69.8927689      -51.9370728       1.00349210E+14
   10.0400009       18.3754253      -70.3154831      -51.9400558       1.02694950E+14
   10.0499992       18.7494011      -70.6938782      -51.9444809       1.04784997E+14
   10.0599995       19.0518131      -70.9984741      -51.9466553       1.06475091E+14
   10.0699997       19.2752972      -71.2163467      -51.9410477       1.07724071E+14
   10.0799999       19.4284801      -71.3701859      -51.9417076       1.08580171E+14
   10.0900002       19.5313435      -71.4779816      -51.9466400       1.09155042E+14
   10.1000004       19.6084576      -71.5538177      -51.9453621       1.09586015E+14
   10.1100006       19.6814690      -71.6322556      -51.9507866       1.09994045E+14
   10.1199999       19.7629623      -71.7071533      -51.9441910       1.10449496E+14
   10.1299992       19.8547974      -71.7952423      -51.9404449       1.10962728E+14
   10.1399994       19.9508324      -71.9048462      -51.9540100       1.11499448E+14
   10.1499996       20.0422268      -72.0012207      -51.9589920       1.12010222E+14
   10.1599998       20.1209335      -72.0867844      -51.9658470       1.12450096E+14
   10.1700001       20.1816635      -72.1622696      -51.9806061       1.12789499E+14
   10.1800003       20.2222080      -72.1990509      -51.9768448       1.13016083E+14
   10.1899996       20.2434635      -72.2220917      -51.9786263       1.13134883E+14
   10.2000008       20.2498436      -72.2352066      -51.9853592       1.13170534E+14
   10.2100000       20.2479248      -72.2292709      -51.9813461       1.13159814E+14
   10.2199993       20.2439671      -72.2268372      -51.9828682       1.13137693E+14
   10.2299995       20.2425632      -72.2305450      -51.9879837       1.13129841E+14
   10.2399998       20.2480011      -72.2325974      -51.9845924       1.13160242E+14
   10.2500000       20.2655983      -72.2462158      -51.9806175       1.13258581E+14
   10.2599993       20.2994747      -72.2759705      -51.9764938       1.13447912E+14
   10.2700005       20.3492146      -72.3289642      -51.9797478       1.13725902E+14
   10.2800007       20.4094448      -72.3842773      -51.9748344       1.14062503E+14
   10.2900000       20.4722977      -72.4429245      -51.9706306       1.14413768E+14
   10.2999992       20.5288811      -72.4983215      -51.9694405       1.14729993E+14
   10.3099995       20.5707798      -72.5342636      -51.9634819       1.14964153E+14
   10.3199997       20.5908794      -72.5547409      -51.9638596       1.15076485E+14
   10.3299999       20.5844975      -72.5635834      -51.9790802       1.15040816E+14
   10.3400002       20.5517044      -72.5341949      -51.9824867       1.14857551E+14
   10.3500004       20.4983158      -72.4752045      -51.9768867       1.14559185E+14
   10.3599997       20.4356213      -72.4136276      -51.9780083       1.14208792E+14
   10.3699999       20.3763657      -72.3524780      -51.9761124       1.13877635E+14
   10.3799992       20.3296604      -72.3085175      -51.9788589       1.13616607E+14
   10.3899994       20.2962151      -72.2636948      -51.9674797       1.13429684E+14
   10.3999996       20.2681561      -72.2378159      -51.9696655       1.13272884E+14
   10.4099998       20.2344704      -72.2067184      -51.9722481       1.13084618E+14
   10.4200001       20.1872787      -72.1602249      -51.9729424       1.12820880E+14
   10.4299994       20.1261501      -72.1030045      -51.9768524       1.12479246E+14
   10.4399996       20.0581074      -72.0212402      -51.9631348       1.12098974E+14
   10.4500008       19.9956188      -71.9662170      -51.9706001       1.11749739E+14
   10.4599991       19.9512825      -71.9192886      -51.9680061       1.11501956E+14
   10.4699993       19.9336510      -71.9063568      -51.9727020       1.11403415E+14
   10.4799995       19.9435673      -71.9228058      -51.9792404       1.11458847E+14
   10.4899998       19.9745502      -71.9534454      -51.9788933       1.11631997E+14
   10.4999990       20.0156994      -71.9881821      -51.9724808       1.11861970E+14
   10.5099993       20.0550346      -72.0220718      -51.9670334       1.12081802E+14
   10.5200005       20.0830135      -72.0578918      -51.9748840       1.12238166E+14
   10.5299997       20.0945263      -72.0737534      -51.9792290       1.12302515E+14
   10.5400000       20.0895844      -72.0777740      -51.9881897       1.12274891E+14
   10.5499992       20.0726414      -72.0577240      -51.9850807       1.12180209E+14
   10.5599995       20.0507126      -72.0378189      -51.9871101       1.12057651E+14
   10.5699987       20.0322475      -72.0105743      -51.9783325       1.11954446E+14
   10.5799990       20.0264149      -72.0082703      -51.9818535       1.11921848E+14
   10.5900002       20.0418701      -72.0159836      -51.9741135       1.12008234E+14
   10.5999994       20.0840530      -72.0545731      -51.9705162       1.12243971E+14
   10.6099997       20.1535797      -72.1186066      -51.9650307       1.12632548E+14
   10.6200008       20.2444324      -72.2221527      -51.9777222       1.13140293E+14
   10.6299992       20.3447628      -72.3237839      -51.9790268       1.13701013E+14
   10.6399994       20.4393444      -72.4209976      -51.9816551       1.14229596E+14
   10.6499987       20.5133343      -72.4883804      -51.9750481       1.14643104E+14
   10.6599998       20.5555954      -72.5402908      -51.9846992       1.14879294E+14
   10.6699991       20.5608730      -72.5522308      -51.9913559       1.14908780E+14
   10.6799994       20.5300350      -72.5259933      -51.9959564       1.14736453E+14
   10.6900005       20.4688911      -72.4617538      -51.9928627       1.14394717E+14
   10.6999998       20.3861961      -72.3723602      -51.9861603       1.13932572E+14
   10.7099991       20.2916737      -72.2803116      -51.9886398       1.13404316E+14
   10.7199993       20.1947002      -72.1895447      -51.9948463       1.12862354E+14
   10.7299995       20.1045761      -72.0989456      -51.9943657       1.12358676E+14
   10.7399988       20.0298271      -72.0135956      -51.9837723       1.11940924E+14
   10.7499990       19.9777355      -71.9635162      -51.9857826       1.11649806E+14
   10.7600002       19.9528961      -71.9343643      -51.9814720       1.11510982E+14
   10.7699995       19.9561119      -71.9330521      -51.9769363       1.11528951E+14
   10.7799997       19.9839859      -71.9540710      -51.9700890       1.11684736E+14
   10.7900000       20.0299072      -71.9980621      -51.9681511       1.11941368E+14
   10.7999992       20.0859089      -72.0535049      -51.9675941       1.12254347E+14
   10.8099985       20.1443920      -72.1113434      -51.9669495       1.12581193E+14
   10.8199987       20.1978951      -72.1771545      -51.9792557       1.12880213E+14
   10.8299999       20.2387619      -72.2239075      -51.9851456       1.13108601E+14
   10.8399992       20.2592640      -72.2379150      -51.9786491       1.13223190E+14
   10.8499994       20.2528744      -72.2331390      -51.9802589       1.13187471E+14
   10.8600006       20.2164383      -72.1973572      -51.9809189       1.12983838E+14
   10.8699999       20.1522026      -72.1352234      -51.9830170       1.12624847E+14
   10.8799982       20.0680561      -72.0516434      -51.9835854       1.12154582E+14
   10.8899994       19.9753075      -71.9547501      -51.9794426       1.11636233E+14
   10.9000006       19.8853283      -71.8666763      -51.9813499       1.11133361E+14
   10.9099998       19.8059273      -71.7862167      -51.9802895       1.10689620E+14
   10.9200001       19.7408905      -71.7296906      -51.9888000       1.10326150E+14
   10.9300003       19.6919727      -71.6804123      -51.9884415       1.10052749E+14
   10.9400005       19.6602612      -71.6495285      -51.9892654       1.09875523E+14
   10.9500008       19.6450729      -71.6247025      -51.9796333       1.09790647E+14
   10.9600000       19.6422482      -71.6181107      -51.9758682       1.09774859E+14
   10.9700003       19.6460495      -71.6240158      -51.9779701       1.09796108E+14
   10.9799995       19.6524525      -71.6171112      -51.9646606       1.09831894E+14
   10.9899998       19.6589451      -71.6223373      -51.9633942       1.09868174E+14
   11.0000000       19.6635036      -71.6292191      -51.9657135       1.09893642E+14
   11.0100002       19.6653004      -71.6227798      -51.9574776       1.09903692E+14
   11.0200005       19.6670742      -71.6231079      -51.9560356       1.09913607E+14
   11.0299997       19.6751213      -71.6306000      -51.9554749       1.09958570E+14
   11.0400009       19.6948376      -71.6519775      -51.9571381       1.10068763E+14
   11.0500002       19.7256260      -71.6859512      -51.9603233       1.10240830E+14
   11.0599995       19.7600937      -71.7225876      -51.9624901       1.10433474E+14
   11.0700006       19.7876148      -71.7540894      -51.9664726       1.10587263E+14
   11.0799999       19.7984772      -71.7657013      -51.9672279       1.10647979E+14
   11.0900002       19.7867203      -71.7556305      -51.9689064       1.10582271E+14
   11.0999994       19.7508945      -71.7150879      -51.9641914       1.10382060E+14
   11.1100006       19.6947784      -71.6549301      -51.9601517       1.10068436E+14
   11.1200008       19.6279049      -71.5912323      -51.9633293       1.09694698E+14
   11.1300001       19.5652943      -71.5302734      -51.9649811       1.09344775E+14
   11.1400003       19.5255280      -71.4817429      -51.9562187       1.09122553E+14
   11.1499996       19.5247955      -71.4786987      -51.9539032       1.09118442E+14
   11.1599998       19.5703297      -71.5360489      -51.9657173       1.09372928E+14
   11.1700001       19.6562748      -71.6207962      -51.9645233       1.09853251E+14
   11.1800003       19.7650375      -71.7320480      -51.9670143       1.10461098E+14
   11.1900005       19.8754902      -71.8501434      -51.9746552       1.11078382E+14
   11.1999998       19.9711208      -71.9516830      -51.9805603       1.11612829E+14
   11.2100010       20.0444813      -72.0352402      -51.9907570       1.12022830E+14
   11.2199993       20.0960541      -72.0846481      -51.9885979       1.12311046E+14
   11.2299995       20.1315765      -72.1190643      -51.9874916       1.12509571E+14
   11.2399998       20.1591301      -72.1535797      -51.9944496       1.12663560E+14
   11.2500000       20.1868439      -72.1783524      -51.9915085       1.12818439E+14
   11.2600002       20.2200146      -72.2069626      -51.9869499       1.13003828E+14
   11.2699995       20.2594242      -72.2476044      -51.9881783       1.13224079E+14
   11.2800007       20.2998695      -72.2866364      -51.9867668       1.13450110E+14
   11.2900009       20.3313942      -72.3216324      -51.9902382       1.13626296E+14
   11.2999992       20.3423901      -72.3408813      -51.9984932       1.13687751E+14
   11.3099995       20.3231430      -72.3273315      -52.0041885       1.13580184E+14
   11.3199997       20.2702560      -72.2761078      -52.0058517       1.13284611E+14
   11.3299999       20.1885471      -72.1904144      -52.0018692       1.12827960E+14
   11.3399992       20.0909786      -72.0895538      -51.9985771       1.12282684E+14
   11.3500004       19.9952621      -71.9930725      -51.9978104       1.11747759E+14
   11.3600006       19.9184074      -71.9114609      -51.9930573       1.11318229E+14
   11.3699999       19.8709087      -71.8589401      -51.9880333       1.11052780E+14
   11.3800001       19.8534336      -71.8464584      -51.9930267       1.10955111E+14
   11.3899994       19.8598957      -71.8500290      -51.9901352       1.10991233E+14
   11.3999996       19.8814640      -71.8688660      -51.9874001       1.11111769E+14
   11.4099989       19.9103565      -71.8967056      -51.9863472       1.11273241E+14
   11.4200001       19.9413433      -71.9242477      -51.9829063       1.11446415E+14
   11.4300003       19.9722900      -71.9576721      -51.9853821       1.11619363E+14
   11.4399996       20.0036354      -71.9923859      -51.9887466       1.11794551E+14
   11.4499998       20.0371513      -72.0298386      -51.9926872       1.11981860E+14
   11.4600010       20.0747166      -72.0690384      -51.9943237       1.12191794E+14
   11.4699993       20.1161728      -72.1110001      -51.9948235       1.12423487E+14
   11.4799995       20.1577873      -72.1576233      -51.9998436       1.12656061E+14
   11.4899998       20.1929836      -72.1965714      -52.0035820       1.12852766E+14
   11.5000000       20.2144394      -72.2128754      -51.9984322       1.12972672E+14
   11.5099993       20.2168674      -72.2136841      -51.9968147       1.12986245E+14
   11.5199995       20.1983814      -72.1917953      -51.9934120       1.12882923E+14
   11.5300007       20.1603031      -72.1577530      -51.9974480       1.12670112E+14
   11.5400000       20.1061859      -72.0999222      -51.9937363       1.12367677E+14
   11.5500002       20.0406742      -72.0364532      -51.9957771       1.12001548E+14
   11.5599995       19.9684811      -71.9616318      -51.9931488       1.11598081E+14
   11.5699997       19.8940639      -71.8834991      -51.9894333       1.11182183E+14
   11.5799990       19.8225956      -71.8027420      -51.9801483       1.10782767E+14
   11.5900002       19.7595959      -71.7459106      -51.9863091       1.10430689E+14
   11.6000004       19.7110252      -71.6968460      -51.9858246       1.10159234E+14
   11.6099997       19.6831760      -71.6643372      -51.9811668       1.10003583E+14
   11.6199999       19.6822338      -71.6662140      -51.9839783       1.09998324E+14
   11.6300001       19.7126694      -71.6922531      -51.9795876       1.10168419E+14
   11.6399994       19.7758331      -71.7534637      -51.9776306       1.10521429E+14
   11.6499987       19.8694324      -71.8501434      -51.9807129       1.11044526E+14
   11.6599998       19.9871616      -71.9742508      -51.9870911       1.11702478E+14
   11.6700001       20.1187286      -72.1067047      -51.9879761       1.12437764E+14
   11.6799994       20.2504883      -72.2385635      -51.9880753       1.13174141E+14
   11.6899996       20.3681774      -72.3655777      -51.9973984       1.13831867E+14
   11.7000008       20.4602528      -72.4686508      -52.0083961       1.14346449E+14
   11.7100000       20.5204887      -72.5334167      -52.0129280       1.14683093E+14
   11.7199993       20.5492496      -72.5584030      -52.0091553       1.14843827E+14
   11.7299995       20.5519238      -72.5582428      -52.0063210       1.14858775E+14
   11.7399998       20.5359001      -72.5391998      -52.0032959       1.14769227E+14
   11.7499990       20.5074921      -72.5022583      -51.9947701       1.14610456E+14
   11.7599993       20.4703503      -72.4671173      -51.9967651       1.14402888E+14
   11.7700005       20.4260960      -72.4135590      -51.9874611       1.14155567E+14
   11.7799997       20.3766365      -72.3771439      -52.0005074       1.13879145E+14
   11.7900000       20.3259220      -72.3347473      -52.0088272       1.13595711E+14
   11.8000002       20.2793522      -72.2863922      -52.0070381       1.13335454E+14
   11.8099995       20.2411976      -72.2464600      -52.0052605       1.13122216E+14
   11.8199987       20.2120266      -72.2366714      -52.0246429       1.12959183E+14
   11.8299990       20.1892395      -72.2103806      -52.0211449       1.12831836E+14
   11.8400002       20.1699810      -72.1930313      -52.0230484       1.12724202E+14
   11.8499994       20.1543369      -72.1725159      -52.0181808       1.12636776E+14
   11.8599997       20.1461773      -72.1602783      -52.0141029       1.12591175E+14
   11.8699999       20.1520786      -72.1587067      -52.0066299       1.12624151E+14
   11.8800001       20.1780338      -72.1830750      -52.0050392       1.12769215E+14
   11.8899984       20.2257957      -72.2158966      -51.9901047       1.13036132E+14
   11.8999987       20.2906055      -72.2822571      -51.9916496       1.13398344E+14
   11.9099998       20.3625851      -72.3553619      -51.9927788       1.13800611E+14
   11.9199991       20.4290543      -72.4298401      -52.0007858       1.14172092E+14
   11.9299994       20.4778862      -72.4707336      -51.9928436       1.14444999E+14
   11.9400005       20.4997845      -72.4907074      -51.9909248       1.14567380E+14
   11.9499998       20.4903889      -72.4851761      -51.9947891       1.14514868E+14
   11.9600000       20.4510479      -72.4502563      -51.9992027       1.14295010E+14
   11.9699984       20.3878574      -72.3827667      -51.9949074       1.13941858E+14
   11.9799995       20.3096752      -72.3080673      -51.9983902       1.13504921E+14
   11.9899988       20.2256222      -72.2094421      -51.9838181       1.13035167E+14
   11.9999990       20.1433907      -72.1250305      -51.9816360       1.12575598E+14
   12.0100002       20.0698547      -72.0550537      -51.9851990       1.12164631E+14
   12.0199995       20.0114441      -71.9916534      -51.9802132       1.11838189E+14
   12.0299997       19.9735641      -71.9516678      -51.9781036       1.11626485E+14
   12.0399990       19.9592552      -71.9354935      -51.9762344       1.11546517E+14
   12.0500002       19.9671898      -71.9444275      -51.9772415       1.11590859E+14
   12.0599985       19.9912128      -71.9631729      -51.9719582       1.11725127E+14
   12.0699987       20.0228157      -71.9951096      -51.9722939       1.11901749E+14
   12.0799999       20.0537338      -72.0316315      -51.9778976       1.12074529E+14
   12.0899992       20.0783825      -72.0640030      -51.9856186       1.12212295E+14
   12.0999994       20.0949917      -72.0681229      -51.9731293       1.12305115E+14
   12.1099997       20.1056767      -72.0791626      -51.9734879       1.12364825E+14
   12.1199999       20.1158886      -72.0869980      -51.9711075       1.12421901E+14
   12.1300001       20.1322937      -72.1149216      -51.9826279       1.12513581E+14
   12.1399984       20.1597576      -72.1357727      -51.9760208       1.12667067E+14
   12.1499996       20.1982861      -72.1864090      -51.9881210       1.12882394E+14
   12.1599998       20.2434006      -72.2350006      -51.9916000       1.13134530E+14
   12.1700001       20.2891102      -72.2871857      -51.9980736       1.13389980E+14
   12.1799994       20.3321877      -72.3243103      -51.9921265       1.13630733E+14
   12.1900005       20.3745461      -72.3646622      -51.9901161       1.13867460E+14
   12.2000008       20.4214630      -72.4142532      -51.9927902       1.14129671E+14
   12.2100000       20.4782085      -72.4680176      -51.9898071       1.14446811E+14
   12.2200012       20.5461540      -72.5398102      -51.9936523       1.14826529E+14
   12.2299995       20.6204758      -72.6149216      -51.9944420       1.15241891E+14
   12.2399998       20.6901283      -72.6828384      -51.9927101       1.15631156E+14
   12.2500000       20.7402363      -72.7392807      -51.9990425       1.15911193E+14
   12.2600002       20.7570763      -72.7552567      -51.9981766       1.16005313E+14
   12.2700005       20.7334442      -72.7339401      -52.0004921       1.15873235E+14
   12.2799997       20.6712418      -72.6633301      -51.9920845       1.15525611E+14
   12.2900009       20.5811882      -72.5679398      -51.9867477       1.15022320E+14
   12.3000011       20.4798946      -72.4621048      -51.9822083       1.14456231E+14
   12.3099995       20.3856678      -72.3706818      -51.9850121       1.13929611E+14
   12.3199997       20.3126087      -72.2969208      -51.9843102       1.13521312E+14
   12.3299999       20.2675228      -72.2504730      -51.9829521       1.13269335E+14
   12.3400002       20.2502098      -72.2303085      -51.9800987       1.13172573E+14
   12.3499994       20.2574749      -72.2418823      -51.9844017       1.13213182E+14
   12.3600006       20.2872410      -72.2561035      -51.9688644       1.13379537E+14
   12.3700008       20.3387966      -72.3135681      -51.9747734       1.13667668E+14
   12.3800001       20.4104462      -72.3805847      -51.9701424       1.14068090E+14
   12.3900013       20.4970112      -72.4690704      -51.9720573       1.14551886E+14
   12.3999996       20.5888958      -72.5667877      -51.9778900       1.15065395E+14
   12.4099998       20.6739960      -72.6408844      -51.9668884       1.15541004E+14
   12.4199991       20.7400894      -72.7031250      -51.9630394       1.15910388E+14
   12.4300003       20.7789135      -72.7340240      -51.9551125       1.16127351E+14
   12.4400005       20.7886028      -72.7491455      -51.9605446       1.16181508E+14
   12.4499998       20.7739296      -72.7389679      -51.9650345       1.16099501E+14
   12.4600010       20.7422638      -72.7175903      -51.9753265       1.15922535E+14
   12.4700012       20.6983223      -72.6801910      -51.9818649       1.15676950E+14
   12.4799995       20.6420441      -72.6249237      -51.9828835       1.15362427E+14
   12.4899988       20.5726147      -72.5598602      -51.9872475       1.14974412E+14
   12.5000000       20.4930000      -72.4894791      -51.9964790       1.14529464E+14
   12.5100002       20.4105110      -72.4069977      -51.9964828       1.14068468E+14
   12.5199995       20.3345642      -72.3211288      -51.9865646       1.13644013E+14
   12.5300007       20.2730694      -72.2552032      -51.9821320       1.13300340E+14
   12.5400009       20.2301006      -72.2015457      -51.9714394       1.13060199E+14
   12.5500002       20.2044830      -72.1849213      -51.9804344       1.12917022E+14
   12.5599995       20.1910439      -72.1683807      -51.9773407       1.12841919E+14
   12.5699997       20.1832294      -72.1592941      -51.9760628       1.12798248E+14
   12.5799999       20.1759815      -72.1547394      -51.9787598       1.12757739E+14
   12.5899992       20.1671181      -72.1464691      -51.9793510       1.12708205E+14
   12.6000004       20.1549168      -72.1328735      -51.9779587       1.12640014E+14
   12.6100006       20.1355515      -72.1048965      -51.9693451       1.12531784E+14
   12.6199999       20.1032448      -72.0785599      -51.9753113       1.12351244E+14
   12.6300001       20.0529671      -72.0276871      -51.9747238       1.12070243E+14
   12.6400003       19.9843254      -71.9513321      -51.9670067       1.11686632E+14
   12.6499996       19.9023991      -71.8709641      -51.9685631       1.11228765E+14
   12.6599989       19.8169537      -71.7879562      -51.9710045       1.10751235E+14
   12.6700001       19.7416687      -71.7171173      -51.9754524       1.10330487E+14
   12.6800003       19.6909332      -71.6665344      -51.9756012       1.10046944E+14
   12.6899996       19.6756496      -71.6525803      -51.9769287       1.09961531E+14
   12.6999998       19.6995773      -71.6756210      -51.9760475       1.10095254E+14
   12.7100000       19.7576656      -71.7289963      -51.9713287       1.10419901E+14
   12.7200003       19.8376827      -71.8086777      -51.9709930       1.10867090E+14
   12.7299986       19.9241543      -71.9012451      -51.9770889       1.11350349E+14
   12.7399998       20.0038605      -71.9773483      -51.9734879       1.11795818E+14
   12.7500000       20.0689831      -72.0419159      -51.9729309       1.12159757E+14
   12.7599993       20.1165085      -72.0871735      -51.9706688       1.12425366E+14
   12.7699995       20.1469288      -72.1231995      -51.9762726       1.12595378E+14
   12.7800007       20.1640644      -72.1338043      -51.9697418       1.12691142E+14
   12.7900000       20.1745758      -72.1396255      -51.9650497       1.12749888E+14
   12.8000002       20.1879444      -72.1511536      -51.9632072       1.12824597E+14
   12.8100004       20.2142887      -72.1893387      -51.9750481       1.12971825E+14
   12.8199997       20.2598610      -72.2363434      -51.9764786       1.13226520E+14
   12.8299990       20.3250427      -72.3050842      -51.9800415       1.13590804E+14
   12.8399992       20.4040966      -72.3771286      -51.9730377       1.14032606E+14
   12.8500004       20.4884453      -72.4641418      -51.9757004       1.14504013E+14
   12.8599997       20.5701447      -72.5480270      -51.9778862       1.14960605E+14
   12.8699999       20.6443043      -72.6138992      -51.9695969       1.15375061E+14
   12.8800001       20.7100067      -72.6658401      -51.9558334       1.15742255E+14
   12.8900003       20.7692070      -72.7318878      -51.9626846       1.16073110E+14
   12.8999987       20.8247890      -72.7828217      -51.9580307       1.16383740E+14
   12.9099998       20.8784885      -72.8447495      -51.9662628       1.16683843E+14
   12.9200001       20.9286499      -72.8939209      -51.9652710       1.16964190E+14
   12.9299994       20.9706306      -72.9310226      -51.9603920       1.17198803E+14
   12.9399996       20.9978275      -72.9534378      -51.9556046       1.17350804E+14
   12.9499998       21.0039921      -72.9612122      -51.9572220       1.17385256E+14
   12.9600000       20.9854984      -72.9380722      -51.9525757       1.17281900E+14
   12.9700003       20.9424095      -72.8928223      -51.9504166       1.17041080E+14
   12.9800005       20.8779182      -72.8234100      -51.9454880       1.16680655E+14
   12.9899998       20.7966061      -72.7415390      -51.9449348       1.16226236E+14
   12.9999990       20.7036762      -72.6448898      -51.9412155       1.15706880E+14
   13.0099993       20.6048431      -72.5450134      -51.9401665       1.15154516E+14
   13.0199995       20.5063400      -72.4527969      -51.9464531       1.14604022E+14
   13.0299997       20.4140930      -72.3652344      -51.9511375       1.14088483E+14
   13.0400000       20.3330898      -72.2849960      -51.9519081       1.13635775E+14
   13.0500002       20.2665195      -72.2208405      -51.9543228       1.13263732E+14
   13.0600004       20.2154465      -72.1754684      -51.9600182       1.12978301E+14
   13.0699987       20.1785507      -72.1363525      -51.9577980       1.12772101E+14
   13.0799990       20.1515427      -72.1119232      -51.9603767       1.12621164E+14
   13.0900002       20.1281242      -72.0943375      -51.9662132       1.12490285E+14
   13.0999994       20.1027012      -72.0708389      -51.9681396       1.12348199E+14
   13.1099997       20.0746040      -72.0298080      -51.9552040       1.12191173E+14
   13.1199999       20.0516987      -72.0052872      -51.9535866       1.12063154E+14
   13.1300001       20.0504684      -72.0098648      -51.9593964       1.12056284E+14
   13.1399994       20.0883274      -72.0508423      -51.9625168       1.12267870E+14
   13.1499987       20.1700439      -72.1380615      -51.9680138       1.12724562E+14
   13.1599998       20.2804832      -72.2447586      -51.9642715       1.13341771E+14
   13.1699991       20.3935852      -72.3623276      -51.9687500       1.13973861E+14
   13.1799994       20.4873734      -72.4632492      -51.9758759       1.14498023E+14
   13.1899996       20.5505829      -72.5325394      -51.9819603       1.14851276E+14
   13.1999998       20.5810776      -72.5670319      -51.9859505       1.15021699E+14
   13.2100000       20.5819550      -72.5594559      -51.9775047       1.15026606E+14
   13.2199993       20.5588055      -72.5413742      -51.9825706       1.14897237E+14
   13.2300005       20.5195713      -72.5055466      -51.9859772       1.14677967E+14
   13.2399988       20.4739780      -72.4582443      -51.9842720       1.14423155E+14
   13.2499990       20.4323101      -72.4173737      -51.9850616       1.14190295E+14
   13.2599993       20.4031105      -72.4040222      -52.0009117       1.14027095E+14
   13.2699995       20.3899021      -72.3937073      -52.0038071       1.13953275E+14
   13.2799997       20.3900089      -72.3968658      -52.0068588       1.13953879E+14
   13.2899990       20.3961620      -72.4035797      -52.0074196       1.13988264E+14
   13.3000002       20.3997364      -72.4126892      -52.0129509       1.14008238E+14
   13.3099995       20.3933697      -72.4085312      -52.0151634       1.13972653E+14
   13.3199987       20.3725967      -72.3807755      -52.0081749       1.13856572E+14
   13.3299999       20.3369541      -72.3456192      -52.0086670       1.13657367E+14
   13.3399992       20.2900715      -72.3043213      -52.0142517       1.13395357E+14
   13.3499994       20.2394810      -72.2561798      -52.0167007       1.13112619E+14
   13.3599987       20.1954422      -72.2036362      -52.0081978       1.12866498E+14
   13.3699999       20.1685829      -72.1621552      -51.9935760       1.12716384E+14
   13.3799992       20.1672840      -72.1577759      -51.9904900       1.12709136E+14
   13.3899994       20.1958675      -72.1915283      -51.9956627       1.12868880E+14
   13.4000006       20.2539062      -72.2515488      -51.9976463       1.13193234E+14
   13.4099989       20.3357277      -72.3296204      -51.9938965       1.13650522E+14
   13.4199991       20.4309101      -72.4357071      -52.0047989       1.14182461E+14
   13.4299994       20.5262184      -72.5369034      -52.0106888       1.14715112E+14
   13.4399996       20.6081181      -72.6216660      -52.0135460       1.15172828E+14
   13.4500008       20.6657639      -72.6774368      -52.0116692       1.15494992E+14
   13.4600000       20.6929626      -72.6988525      -52.0058937       1.15647002E+14
   13.4700012       20.6886368      -72.6976395      -52.0090027       1.15622826E+14
   13.4800005       20.6564255      -72.6652069      -52.0087776       1.15442807E+14
   13.4899998       20.6026993      -72.6112366      -52.0085373       1.15142545E+14
   13.4999990       20.5354633      -72.5440903      -52.0086250       1.14766786E+14
   13.5100002       20.4634571      -72.4623795      -51.9989243       1.14364359E+14
   13.5200005       20.3944626      -72.3859863      -51.9915237       1.13978768E+14
   13.5299997       20.3333607      -72.3228836      -51.9895248       1.13637285E+14
   13.5400009       20.2828064      -72.2656479      -51.9828453       1.13354757E+14
   13.5500002       20.2439365      -72.2251511      -51.9812126       1.13137517E+14
   13.5600004       20.2181988      -72.1988907      -51.9806938       1.12993686E+14
   13.5699987       20.2081947      -72.2026596      -51.9944649       1.12937767E+14
   13.5799999       20.2165871      -72.2110596      -51.9944763       1.12984668E+14
   13.5900002       20.2437172      -72.2371368      -51.9934235       1.13136292E+14
   13.5999994       20.2856178      -72.2746658      -51.9890442       1.13370468E+14
   13.6100006       20.3347645      -72.3268127      -51.9920464       1.13645137E+14
   13.6200008       20.3826351      -72.3852463      -52.0026093       1.13912666E+14
   13.6300001       20.4226360      -72.4255676      -52.0029297       1.14136223E+14
   13.6400003       20.4510307      -72.4501114      -51.9990768       1.14294910E+14
   13.6500006       20.4668617      -72.4623718      -51.9955063       1.14383393E+14
   13.6599998       20.4710560      -72.4606781      -51.9896202       1.14406822E+14
   13.6699991       20.4654922      -72.4594955      -51.9940071       1.14375734E+14
   13.6800003       20.4527531      -72.4429703      -51.9902191       1.14304532E+14
   13.6900005       20.4359589      -72.4245148      -51.9885597       1.14210680E+14
   13.6999998       20.4174881      -72.4010010      -51.9835129       1.14107450E+14
   13.7100000       20.3973732      -72.3747559      -51.9773865       1.13995034E+14
   13.7200003       20.3715725      -72.3486023      -51.9770279       1.13850842E+14
   13.7300005       20.3334351      -72.3156967      -51.9822578       1.13637704E+14
   13.7399988       20.2774105      -72.2679291      -51.9905167       1.13324591E+14
   13.7500000       20.2021370      -72.1893921      -51.9872551       1.12903911E+14
   13.7600002       20.1109962      -72.0980377      -51.9870377       1.12394555E+14
   13.7699995       20.0113316      -72.0089111      -51.9975815       1.11837551E+14
   13.7800007       19.9124050      -71.9167862      -52.0043793       1.11284691E+14
   13.7900000       19.8237782      -71.8238373      -52.0000610       1.10789378E+14
   13.8000002       19.7539444      -71.7485352      -51.9945908       1.10399098E+14
   13.8100004       19.7085934      -71.7018356      -51.9932442       1.10145644E+14
   13.8200006       19.6901913      -71.6895218      -51.9993286       1.10042800E+14
   13.8299999       19.6988201      -71.6994476      -52.0006256       1.10091026E+14
   13.8399992       19.7334995      -71.7332611      -51.9997635       1.10284836E+14
   13.8500004       19.7934055      -71.7893524      -51.9959450       1.10619634E+14
   13.8600006       19.8773098      -71.8769379      -51.9996262       1.11088557E+14
   13.8699999       19.9825420      -71.9871521      -52.0046082       1.11676658E+14
   13.8800001       20.1050014      -72.1126862      -52.0076828       1.12361050E+14
   13.8900003       20.2397308      -72.2492752      -52.0095406       1.13114020E+14
   13.9000006       20.3811131      -72.4012833      -52.0201721       1.13904168E+14
   13.9099989       20.5233955      -72.5431671      -52.0197716       1.14699341E+14
   13.9200001       20.6606789      -72.6800766      -52.0193939       1.15466580E+14
   13.9300003       20.7872906      -72.8025742      -52.0152893       1.16174168E+14
   13.9399996       20.8976612      -72.9110489      -52.0133896       1.16791007E+14
   13.9499998       20.9858952      -72.9947968      -52.0089035       1.17284115E+14
   13.9600000       21.0450878      -73.0405579      -51.9954720       1.17614920E+14
   13.9700003       21.0681725      -73.0615921      -51.9934158       1.17743945E+14
   13.9799995       21.0511360      -73.0443420      -51.9932060       1.17648726E+14
   13.9899998       20.9955425      -72.9929276      -51.9973831       1.17338028E+14
   14.0000000       20.9097824      -72.8927002      -51.9829178       1.16858745E+14
   14.0099993       20.8072529      -72.7918091      -51.9845543       1.16285736E+14
   14.0199995       20.7046852      -72.6947708      -51.9900894       1.15712509E+14
   14.0299997       20.6178780      -72.5983047      -51.9804230       1.15227379E+14
   14.0400000       20.5575294      -72.5237198      -51.9661942       1.14890107E+14
   14.0500002       20.5266819      -72.4902420      -51.9635620       1.14717696E+14
   14.0600004       20.5196877      -72.4888458      -51.9691582       1.14678622E+14
   14.0700006       20.5243626      -72.4970932      -51.9727287       1.14704752E+14
   14.0799990       20.5265121      -72.4963226      -51.9698105       1.14716756E+14
   14.0899992       20.5147324      -72.4859161      -51.9711800       1.14650922E+14
   14.0999994       20.4844589      -72.4590759      -51.9746132       1.14481733E+14
   14.1099997       20.4389725      -72.4229736      -51.9840088       1.14227516E+14
   14.1199999       20.3856277      -72.3752289      -51.9896049       1.13929393E+14
   14.1300001       20.3321991      -72.3295517      -51.9973488       1.13630801E+14
   14.1400003       20.2861595      -72.2896652      -52.0035057       1.13373497E+14
   14.1499996       20.2567921      -72.2526932      -51.9958954       1.13209374E+14
   14.1599989       20.2529430      -72.2546463      -52.0017014       1.13187857E+14
   14.1700001       20.2761288      -72.2754364      -51.9993057       1.13317444E+14
   14.1799994       20.3170948      -72.3111877      -51.9940910       1.13546386E+14
   14.1899996       20.3603840      -72.3522415      -51.9918594       1.13788305E+14
   14.1999998       20.3934059      -72.3860550      -51.9926491       1.13972863E+14
   14.2100000       20.4104290      -72.4047928      -51.9943619       1.14067998E+14
   14.2199993       20.4111538      -72.4041519      -51.9930000       1.14072050E+14
   14.2299995       20.3979149      -72.3880920      -51.9901772       1.13998062E+14
   14.2400007       20.3723354      -72.3639221      -51.9915848       1.13855112E+14
   14.2499990       20.3344727      -72.3278503      -51.9933777       1.13643509E+14
   14.2599993       20.2836933      -72.2772369      -51.9935493       1.13359714E+14
   14.2699995       20.2215576      -72.2174149      -51.9958534       1.13012451E+14
   14.2799997       20.1545601      -72.1466370      -51.9920769       1.12638026E+14
   14.2900000       20.0932751      -72.0859985      -51.9927216       1.12295519E+14
   14.3000002       20.0497990      -72.0465317      -51.9967384       1.12052543E+14
   14.3100004       20.0323238      -72.0301971      -51.9978790       1.11954874E+14
   14.3199997       20.0416012      -72.0410385      -51.9994392       1.12006732E+14
   14.3299990       20.0693913      -72.0651855      -51.9957962       1.12162031E+14
   14.3399992       20.1015015      -72.1045914      -52.0030899       1.12341497E+14
   14.3499994       20.1225891      -72.1268921      -52.0043030       1.12459348E+14
   14.3599997       20.1224670      -72.1172943      -51.9948235       1.12458652E+14
   14.3699999       20.1001015      -72.0942078      -51.9941025       1.12333670E+14
   14.3800001       20.0638351      -72.0561218      -51.9922905       1.12130985E+14
   14.3899994       20.0274029      -72.0180054      -51.9906006       1.11927385E+14
   14.3999996       20.0033836      -71.9904938      -51.9871140       1.11793142E+14
   14.4099989       19.9988804      -71.9817734      -51.9828949       1.11767976E+14
   14.4199991       20.0149574      -71.9876785      -51.9727211       1.11857826E+14
   14.4299994       20.0488358      -72.0227890      -51.9739532       1.12047157E+14
   14.4399996       20.0956001      -72.0714188      -51.9758186       1.12308521E+14
   14.4499998       20.1494732      -72.1253433      -51.9758759       1.12609588E+14
   14.4599991       20.2049389      -72.1924286      -51.9874954       1.12919572E+14
   14.4699993       20.2582302      -72.2378616      -51.9796295       1.13217410E+14
   14.4800005       20.3084373      -72.2918015      -51.9833679       1.13498000E+14
   14.4899998       20.3567085      -72.3504868      -51.9937782       1.13767778E+14
   14.4999990       20.4040813      -72.3957520      -51.9916763       1.14032523E+14
   14.5099993       20.4498520      -72.4465179      -51.9966698       1.14288325E+14
   14.5199995       20.4906864      -72.4918823      -52.0011940       1.14516537E+14
   14.5299988       20.5205097      -72.5286484      -52.0081406       1.14683202E+14
   14.5399990       20.5331917      -72.5347061      -52.0015144       1.14754077E+14
   14.5500002       20.5247688      -72.5246124      -51.9998436       1.14707017E+14
   14.5599995       20.4958649      -72.4965744      -52.0007057       1.14545478E+14
   14.5699997       20.4517021      -72.4501648      -51.9984627       1.14298668E+14
   14.5799990       20.4012413      -72.3979568      -51.9967117       1.14016651E+14
   14.5899992       20.3549824      -72.3511581      -51.9961777       1.13758114E+14
   14.5999994       20.3230839      -72.3282242      -52.0051422       1.13579848E+14
   14.6099987       20.3127995      -72.3174133      -52.0046158       1.13522378E+14
   14.6199999       20.3270435      -72.3385696      -52.0115280       1.13601986E+14
   14.6299992       20.3639145      -72.3820343      -52.0181198       1.13808035E+14
   14.6399994       20.4175701      -72.4306488      -52.0130806       1.14107911E+14
   14.6500006       20.4808807      -72.4907684      -52.0098877       1.14461734E+14
   14.6599989       20.5466938      -72.5542068      -52.0075073       1.14829549E+14
   14.6699991       20.6097260      -72.6208496      -52.0111198       1.15181812E+14
   14.6799984       20.6666126      -72.6870728      -52.0204582       1.15499732E+14
   14.6899996       20.7160435      -72.7269058      -52.0108643       1.15775994E+14
   14.6999989       20.7582207      -72.7677002      -52.0094795       1.16011714E+14
   14.7099991       20.7948227      -72.7992172      -52.0043945       1.16216262E+14
   14.7200012       20.8291721      -72.8332062      -52.0040321       1.16408235E+14
   14.7300005       20.8645229      -72.8664169      -52.0018883       1.16605804E+14
   14.7400007       20.9024067      -72.9093094      -52.0069046       1.16817524E+14
   14.7499990       20.9414425      -72.9547577      -52.0133171       1.17035686E+14
   14.7600002       20.9784107      -72.9990692      -52.0206604       1.17242281E+14
   14.7700005       21.0091076      -73.0286407      -52.0195312       1.17413845E+14
   14.7799997       21.0283394      -73.0477829      -52.0194435       1.17521319E+14
   14.7900009       21.0305157      -73.0478516      -52.0173340       1.17533483E+14
   14.8000002       21.0113106      -73.0254135      -52.0141029       1.17426151E+14
   14.8100004       20.9694347      -72.9942627      -52.0248299       1.17192125E+14
   14.8200006       20.9080925      -72.9380417      -52.0299492       1.16849300E+14
   14.8300009       20.8354950      -72.8613129      -52.0258217       1.16443576E+14
   14.8400002       20.7631054      -72.7907944      -52.0276871       1.16039002E+14
   14.8499994       20.7020550      -72.7285309      -52.0264778       1.15697812E+14
   14.8600006       20.6583576      -72.6837311      -52.0253754       1.15453595E+14
   14.8699999       20.6314945      -72.6511307      -52.0196304       1.15303472E+14
   14.8800001       20.6156216      -72.6431808      -52.0275612       1.15214771E+14
   14.8900003       20.6030674      -72.6248856      -52.0218163       1.15144600E+14
   14.9000006       20.5876179      -72.6124725      -52.0248528       1.15058256E+14
   14.9100008       20.5651207      -72.5886536      -52.0235367       1.14932528E+14
   14.9199991       20.5334091      -72.5586014      -52.0251884       1.14755302E+14
   14.9300003       20.4920597      -72.5172501      -52.0251884       1.14524204E+14
   14.9400005       20.4414597      -72.4620590      -52.0205956       1.14241416E+14
   14.9499998       20.3829021      -72.4120102      -52.0291023       1.13914159E+14
   14.9600000       20.3189983      -72.3451385      -52.0261383       1.13557023E+14
   14.9700003       20.2533894      -72.2681198      -52.0147324       1.13190357E+14
   14.9800005       20.1903152      -72.2072144      -52.0168991       1.12837842E+14
   14.9899998       20.1351776      -72.1452866      -52.0101128       1.12529703E+14
   15.0000000       20.0935898      -72.0938110      -52.0002213       1.12297280E+14
   15.0100002       20.0694828      -72.0635376      -51.9940529       1.12162551E+14
   15.0199995       20.0637589      -72.0500870      -51.9863281       1.12130565E+14
   15.0299997       20.0736103      -72.0603180      -51.9867058       1.12185611E+14
   15.0400000       20.0935650      -72.0791092      -51.9855423       1.12297138E+14
   15.0500002       20.1175995      -72.1161804      -51.9985771       1.12431464E+14
   15.0599995       20.1407223      -72.1441956      -52.0034714       1.12560691E+14
   15.0700006       20.1595764      -72.1592102      -51.9996338       1.12666060E+14
   15.0800009       20.1720657      -72.1708145      -51.9987526       1.12735853E+14
   15.0899992       20.1782036      -72.1763000      -51.9980965       1.12770154E+14
   15.0999994       20.1793346      -72.1803894      -52.0010529       1.12776471E+14
   15.1099997       20.1770420      -72.1727753      -51.9957352       1.12763670E+14
   15.1199999       20.1727505      -72.1639481      -51.9911957       1.12739687E+14
   15.1300001       20.1682606      -72.1612244      -51.9929581       1.12714588E+14
   15.1400003       20.1679707      -72.1672440      -51.9992714       1.12712978E+14
   15.1500006       20.1802120      -72.1746445      -51.9944305       1.12781378E+14
   15.1599998       20.2158298      -72.2125244      -51.9967003       1.12980440E+14
   15.1700001       20.2836552      -72.2696381      -51.9859772       1.13359496E+14
   15.1799994       20.3856277      -72.3654099      -51.9797859       1.13929393E+14
   15.1899996       20.5137329      -72.4899063      -51.9761696       1.14645336E+14
   15.1999998       20.6514511      -72.6321869      -51.9807320       1.15414999E+14
   15.2100000       20.7787819      -72.7682648      -51.9894829       1.16126621E+14
   15.2200003       20.8786049      -72.8661118      -51.9875031       1.16684497E+14
   15.2299995       20.9402485      -72.9340439      -51.9937897       1.17029009E+14
   15.2400007       20.9611530      -72.9533463      -51.9921913       1.17145837E+14
   15.2500000       20.9457092      -72.9332504      -51.9875374       1.17059527E+14
   15.2599993       20.9039822      -72.8826294      -51.9786491       1.16826323E+14
   15.2699995       20.8493404      -72.8244095      -51.9750633       1.16520961E+14
   15.2799997       20.7944889      -72.7603912      -51.9659042       1.16214400E+14
   15.2900000       20.7479286      -72.7200851      -51.9721565       1.15954193E+14
   15.2999992       20.7133293      -72.6950607      -51.9817314       1.15760819E+14
   15.3100004       20.6904888      -72.6672058      -51.9767151       1.15633178E+14
   15.3200006       20.6780491      -72.6589050      -51.9808578       1.15563653E+14
   15.3299999       20.6751537      -72.6557541      -51.9805984       1.15547472E+14
   15.3399992       20.6814308      -72.6639481      -51.9825211       1.15582553E+14
   15.3499994       20.6959152      -72.6805954      -51.9846802       1.15663503E+14
   15.3599997       20.7159004      -72.7050095      -51.9891090       1.15775197E+14
   15.3699999       20.7381687      -72.7289581      -51.9907875       1.15899642E+14
   15.3800001       20.7604618      -72.7502289      -51.9897652       1.16024238E+14
   15.3900003       20.7832870      -72.7735748      -51.9902878       1.16151795E+14
   15.3999996       20.8090324      -72.8042526      -51.9952240       1.16295677E+14
   15.4099998       20.8406448      -72.8346024      -51.9939613       1.16472349E+14
   15.4199991       20.8802032      -72.8721237      -51.9919205       1.16693439E+14
   15.4299994       20.9274845      -72.9192429      -51.9917526       1.16957681E+14
   15.4399996       20.9794006      -72.9627914      -51.9833908       1.17247817E+14
   15.4499998       21.0311298      -73.0169754      -51.9858475       1.17536922E+14
   15.4600000       21.0778885      -73.0571671      -51.9792747       1.17798236E+14
   15.4699993       21.1143837      -73.0973969      -51.9830132       1.18002205E+14
   15.4799995       21.1337757      -73.1124115      -51.9786377       1.18110569E+14
   15.4900007       21.1281738      -73.1171570      -51.9889832       1.18079271E+14
   15.5000000       21.0913315      -73.0888748      -51.9975433       1.17873364E+14
   15.5099993       21.0217171      -73.0227127      -52.0009918       1.17484317E+14
   15.5199995       20.9232655      -72.9271927      -52.0039291       1.16934092E+14
   15.5299997       20.8036919      -72.7965775      -51.9928894       1.16265830E+14
   15.5399990       20.6723137      -72.6685181      -51.9962006       1.15531600E+14
   15.5499992       20.5377560      -72.5451431      -52.0073891       1.14779595E+14
   15.5600004       20.4069157      -72.4172668      -52.0103493       1.14048360E+14
   15.5699997       20.2850380      -72.2873154      -52.0022774       1.13367222E+14
   15.5799999       20.1766167      -72.1775360      -52.0009155       1.12761288E+14
   15.5899992       20.0854740      -72.0799408      -51.9944649       1.12251923E+14
   15.5999994       20.0146809      -72.0174179      -52.0027390       1.11856274E+14
   15.6099987       19.9649353      -71.9627838      -51.9978485       1.11578268E+14
   15.6199989       19.9338703      -71.9372940      -52.0034256       1.11404657E+14
   15.6300001       19.9160862      -71.9105606      -51.9944763       1.11305260E+14
   15.6399994       19.9048824      -71.8971786      -51.9922905       1.11242648E+14
   15.6499996       19.8960190      -71.8849411      -51.9889221       1.11193105E+14
   15.6600008       19.8902149      -71.8835983      -51.9933815       1.11160674E+14
   15.6699991       19.8930092      -71.8888397      -51.9958305       1.11176294E+14
   15.6799994       19.9107704      -71.9043884      -51.9936142       1.11275556E+14
   15.6899996       19.9454899      -71.9470825      -52.0015907       1.11469585E+14
   15.6999998       19.9923306      -71.9930038      -52.0006714       1.11731368E+14
   15.7099991       20.0411510      -72.0445480      -52.0034027       1.12004207E+14
   15.7199993       20.0806713      -72.0828171      -52.0021439       1.12225080E+14
   15.7300005       20.1017303      -72.1041641      -52.0024300       1.12342772E+14
   15.7399998       20.0993576      -72.0968170      -51.9974556       1.12329509E+14
   15.7500000       20.0730247      -72.0592499      -51.9862213       1.12182340E+14
   15.7599993       20.0263138      -72.0120697      -51.9857559       1.11921294E+14
   15.7699995       19.9664078      -71.9501266      -51.9837189       1.11586488E+14
   15.7799988       19.9022980      -71.8839569      -51.9816589       1.11228203E+14
   15.7899990       19.8427315      -71.8177032      -51.9749718       1.10895301E+14
   15.8000002       19.7955990      -71.7632828      -51.9676819       1.10631898E+14
   15.8099995       19.7677479      -71.7415543      -51.9738083       1.10476239E+14
   15.8199997       19.7628288      -71.7429428      -51.9801140       1.10448741E+14
   15.8299999       19.7786655      -71.7484818      -51.9698181       1.10537258E+14
   15.8399992       19.8059311      -71.7760086      -51.9700775       1.10689637E+14
   15.8499985       19.8318920      -71.8005295      -51.9686394       1.10834718E+14
   15.8599987       19.8461266      -71.8196945      -51.9735718       1.10914276E+14
   15.8699999       19.8442688      -71.8142014      -51.9699326       1.10903891E+14
   15.8799992       19.8274174      -71.8050461      -51.9776306       1.10809712E+14
   15.8899994       19.8002625      -71.7881470      -51.9878807       1.10657953E+14
   15.9000006       19.7691612      -71.7571869      -51.9880295       1.10484150E+14
   15.9099998       19.7403412      -71.7293549      -51.9890099       1.10323072E+14
   15.9199982       19.7197514      -71.7218857      -52.0021324       1.10208005E+14
   15.9299984       19.7128582      -71.7172394      -52.0043793       1.10169476E+14
   15.9399996       19.7237682      -71.7259903      -52.0022240       1.10230445E+14
   15.9499989       19.7536697      -71.7598953      -52.0062256       1.10397563E+14
   15.9599991       19.7999229      -71.8040848      -52.0041580       1.10656066E+14
   15.9700003       19.8558140      -71.8625488      -52.0067406       1.10968416E+14
   15.9799995       19.9133453      -71.9165726      -52.0032234       1.11289943E+14
   15.9899998       19.9673519      -71.9651871      -51.9978294       1.11591773E+14
   15.9999990       20.0170288      -72.0104065      -51.9933739       1.11869411E+14
   16.0100002       20.0657330      -72.0611267      -51.9953957       1.12141604E+14
   16.0200005       20.1181450      -72.1120224      -51.9938812       1.12434510E+14
   16.0300007       20.1773987      -72.1651993      -51.9878006       1.12765658E+14
   16.0400009       20.2440109      -72.2274475      -51.9834366       1.13137936E+14
   16.0500011       20.3158131      -72.2962341      -51.9804192       1.13539222E+14
   16.0599995       20.3894558      -72.3629990      -51.9735451       1.13950792E+14
   16.0699997       20.4603081      -72.4286194      -51.9683113       1.14346760E+14
   16.0800018       20.5225811      -72.4891281      -51.9665413       1.14694795E+14
   16.0900002       20.5706463      -72.5403519      -51.9697037       1.14963406E+14
   16.1000004       20.5997639      -72.5731049      -51.9733429       1.15126137E+14
   16.1100006       20.6077538      -72.5680618      -51.9603119       1.15170790E+14
   16.1200008       20.5954666      -72.5681839      -51.9727135       1.15102120E+14
   16.1299992       20.5659924      -72.5311127      -51.9651184       1.14937410E+14
   16.1399994       20.5242672      -72.4860535      -51.9617805       1.14704215E+14
   16.1500015       20.4764004      -72.4344940      -51.9580956       1.14436694E+14
   16.1599998       20.4288788      -72.3834991      -51.9546204       1.14171111E+14
   16.1700001       20.3872375      -72.3399734      -51.9527359       1.13938386E+14
   16.1800003       20.3547840      -72.3116531      -51.9568710       1.13757016E+14
   16.1900005       20.3309097      -72.2862701      -51.9553642       1.13623595E+14
   16.1999989       20.3107300      -72.2647324      -51.9539948       1.13510810E+14
   16.2099991       20.2876873      -72.2383652      -51.9506798       1.13382036E+14
   16.2200012       20.2568474      -72.2193298      -51.9624825       1.13209667E+14
   16.2299995       20.2170563      -72.1707306      -51.9536705       1.12987302E+14
   16.2399998       20.1713047      -72.1333160      -51.9620094       1.12731600E+14
   16.2500019       20.1249981      -72.0932541      -51.9682541       1.12472812E+14
   16.2600002       20.0829906      -72.0530472      -51.9700546       1.12238048E+14
   16.2700005       20.0473194      -72.0250397      -51.9777222       1.12038685E+14
   16.2799988       20.0166206      -72.0007629      -51.9841461       1.11867121E+14
   16.2900009       19.9873009      -71.9714737      -51.9841766       1.11703258E+14
   16.2999992       19.9552574      -71.9374924      -51.9822311       1.11524178E+14
   16.3099995       19.9181385      -71.8939362      -51.9757996       1.11316727E+14
   16.3200016       19.8757820      -71.8590393      -51.9832573       1.11080009E+14
   16.3299999       19.8311272      -71.8242340      -51.9931068       1.10830440E+14
   16.3400002       19.7887630      -71.7886429      -51.9998817       1.10593688E+14
   16.3499985       19.7535076      -71.7632828      -52.0097733       1.10396657E+14
   16.3600006       19.7288914      -71.7419052      -52.0130119       1.10259083E+14
   16.3699989       19.7166653      -71.7237015      -52.0070381       1.10190758E+14
   16.3799992       19.7175694      -71.7222748      -52.0047073       1.10195808E+14
   16.3900013       19.7331657      -71.7349854      -52.0018196       1.10282974E+14
   16.3999996       19.7673740      -71.7607651      -51.9933891       1.10474151E+14
   16.4099998       19.8271866      -71.8153458      -51.9881554       1.10808428E+14
   16.4200001       19.9191303      -71.9037170      -51.9845886       1.11322272E+14
   16.4300003       20.0445900      -72.0285873      -51.9840012       1.12023426E+14
   16.4399986       20.1957035      -72.1776123      -51.9819069       1.12867957E+14
   16.4499989       20.3559704      -72.3392181      -51.9832458       1.13763651E+14
   16.4600010       20.5045719      -72.4920883      -51.9875183       1.14594140E+14
   16.4699993       20.6228485      -72.6080246      -51.9851723       1.15255154E+14
   16.4799995       20.6995049      -72.6882248      -51.9887199       1.15683560E+14
   16.4900017       20.7325459      -72.7227707      -51.9902229       1.15868218E+14
   16.5000000       20.7284222      -72.7132339      -51.9848099       1.15845175E+14
   16.5099983       20.6966839      -72.6669159      -51.9702301       1.15667789E+14
   16.5199986       20.6454868      -72.6175232      -51.9720383       1.15381679E+14
   16.5300007       20.5779839      -72.5462570      -51.9682693       1.15004418E+14
   16.5399990       20.4939575      -72.4603348      -51.9663773       1.14534816E+14
   16.5499992       20.3933334      -72.3542938      -51.9609642       1.13972460E+14
   16.5600014       20.2804165      -72.2458878      -51.9654732       1.13341402E+14
   16.5699997       20.1642532      -72.1371765      -51.9729271       1.12692199E+14
   16.5799999       20.0564308      -72.0217285      -51.9653015       1.12089604E+14
   16.5900002       19.9670353      -71.9356689      -51.9686317       1.11589995E+14
   16.6000004       19.9028931      -71.8683090      -51.9654198       1.11231533E+14
   16.6099987       19.8681355      -71.8360672      -51.9679298       1.11037278E+14
   16.6199989       19.8644848      -71.8310928      -51.9666100       1.11016877E+14
   16.6300011       19.8896961      -71.8512192      -51.9615250       1.11157772E+14
   16.6399994       19.9361973      -71.8907928      -51.9545937       1.11417659E+14
   16.6499996       19.9921684      -71.9541931      -51.9620247       1.11730470E+14
   16.6599998       20.0443192      -71.9973145      -51.9529991       1.12021907E+14
   16.6700001       20.0811691      -72.0370026      -51.9558334       1.12227865E+14
   16.6799984       20.0951748      -72.0503922      -51.9552193       1.12306139E+14
   16.6899986       20.0833988      -72.0291367      -51.9457397       1.12240322E+14
   16.7000008       20.0468292      -71.9939728      -51.9471436       1.12035942E+14
   16.7099991       19.9904633      -71.9448929      -51.9544296       1.11720941E+14
   16.7199993       19.9220943      -71.8806992      -51.9585991       1.11338840E+14
   16.7299995       19.8514252      -71.8164597      -51.9650345       1.10943896E+14
   16.7399998       19.7882748      -71.7553024      -51.9670296       1.10590962E+14
   16.7500000       19.7413845      -71.7044067      -51.9630241       1.10328902E+14
   16.7599983       19.7173176      -71.6876678      -51.9703522       1.10194407E+14
   16.7700005       19.7196007      -71.6944733      -51.9748764       1.10207158E+14
   16.7799988       19.7472153      -71.7151718      -51.9679565       1.10361492E+14
   16.7899990       19.7946739      -71.7612305      -51.9665565       1.10626723E+14
   16.7999992       19.8536263      -71.8121872      -51.9585609       1.10956185E+14
   16.8099995       19.9155979      -71.8702927      -51.9546967       1.11302534E+14
   16.8199997       19.9744396      -71.9312820      -51.9568405       1.11631384E+14
   16.8299999       20.0254726      -71.9880905      -51.9626160       1.11916588E+14
   16.8400002       20.0650120      -72.0286789      -51.9636688       1.12137561E+14
   16.8499985       20.0919323      -72.0548248      -51.9628944       1.12288011E+14
   16.8599987       20.1107445      -72.0734100      -51.9626617       1.12393154E+14
   16.8699989       20.1310539      -72.0902023      -51.9591446       1.12506660E+14
   16.8799992       20.1622276      -72.1203384      -51.9581108       1.12680875E+14
   16.8899994       20.2051163      -72.1634064      -51.9582901       1.12920571E+14
   16.8999996       20.2492065      -72.2039948      -51.9547882       1.13166978E+14
   16.9099998       20.2774029      -72.2345505      -51.9571457       1.13324558E+14
   16.9200001       20.2758350      -72.2316284      -51.9557953       1.13315792E+14
   16.9299984       20.2408600      -72.2067642      -51.9659042       1.13120320E+14
   16.9399986       20.1808567      -72.1488113      -51.9679565       1.12784986E+14
   16.9499989       20.1121235      -72.0790405      -51.9669113       1.12400854E+14
   16.9599991       20.0503368      -72.0202332      -51.9699020       1.12055546E+14
   16.9699993       20.0042877      -71.9697418      -51.9654541       1.11798192E+14
   16.9799995       19.9749794      -71.9415359      -51.9665565       1.11634396E+14
   16.9899998       19.9593277      -71.9274979      -51.9681740       1.11546928E+14
   17.0000000       19.9523582      -71.9252930      -51.9729309       1.11507979E+14
   17.0100002       19.9490528      -71.9256439      -51.9765930       1.11489499E+14
   17.0199986       19.9454975      -71.9345474      -51.9890518       1.11469635E+14
   17.0299988       19.9400158      -71.9262924      -51.9862747       1.11439000E+14
   17.0399990       19.9340210      -71.9222031      -51.9881859       1.11405496E+14
   17.0499992       19.9316368      -71.9235611      -51.9919281       1.11392166E+14
   17.0599995       19.9373970      -71.9218750      -51.9844780       1.11424362E+14
   17.0699997       19.9550018      -71.9391174      -51.9841194       1.11522743E+14
   17.0799999       19.9857464      -71.9746399      -51.9888954       1.11694567E+14
   17.0900002       20.0291557      -72.0226440      -51.9934883       1.11937174E+14
   17.0999985       20.0840778      -72.0853043      -52.0012207       1.12244122E+14
   17.1099987       20.1490116      -72.1494751      -52.0004616       1.12607013E+14
   17.1199989       20.2217236      -72.2217789      -52.0000534       1.13013382E+14
   17.1299992       20.2979050      -72.2996445      -52.0017395       1.13439138E+14
   17.1399994       20.3710499      -72.3742447      -52.0031929       1.13847923E+14
   17.1499996       20.4329643      -72.4341736      -52.0012131       1.14193945E+14
   17.1599998       20.4754314      -72.4750443      -51.9996109       1.14431283E+14
   17.1700001       20.4922466      -72.4888840      -51.9966354       1.14525253E+14
   17.1799984       20.4806252      -72.4835587      -52.0029373       1.14460308E+14
   17.1899986       20.4410534      -72.4396667      -51.9986153       1.14239151E+14
   17.1999989       20.3769474      -72.3651581      -51.9882050       1.13880890E+14
   17.2099991       20.2951164      -72.2816010      -51.9864883       1.13423552E+14
   17.2199993       20.2049942      -72.1850967      -51.9801025       1.12919883E+14
   17.2299995       20.1183853      -72.0957870      -51.9774017       1.12435860E+14
   17.2399998       20.0486641      -72.0267334      -51.9780693       1.12046201E+14
   17.2500000       20.0097294      -71.9920883      -51.9823570       1.11828609E+14
   17.2600002       20.0126476      -72.0011902      -51.9885406       1.11844916E+14
   17.2700005       20.0594349      -72.0548019      -51.9953651       1.12106397E+14
   17.2799988       20.1402378      -72.1351166      -51.9948807       1.12557981E+14
   17.2899990       20.2381382      -72.2401962      -52.0020638       1.13105112E+14
   17.3000011       20.3360271      -72.3371887      -52.0011635       1.13652191E+14
   17.3099995       20.4196434      -72.4146194      -51.9949760       1.14119496E+14
   17.3199997       20.4770622      -72.4806290      -52.0035667       1.14440402E+14
   17.3300018       20.4989452      -72.5068817      -52.0079384       1.14562691E+14
   17.3400002       20.4796467      -72.4879150      -52.0082741       1.14454839E+14
   17.3500004       20.4193745      -72.4191055      -51.9997292       1.14117994E+14
   17.3600006       20.3252449      -72.3236542      -51.9984093       1.13591936E+14
   17.3700008       20.2083073      -72.2082977      -51.9999886       1.12938396E+14
   17.3799992       20.0791225      -72.0751266      -51.9960022       1.12216422E+14
   17.3899994       19.9456635      -71.9329071      -51.9872398       1.11470558E+14
   17.4000015       19.8134041      -71.7949066      -51.9815063       1.10731396E+14
   17.4099998       19.6865120      -71.6740875      -51.9875755       1.10022239E+14
   17.4200001       19.5687847      -71.5506592      -51.9818764       1.09364287E+14
   17.4300003       19.4642677      -71.4346695      -51.9704018       1.08780172E+14
   17.4400005       19.3774948      -71.3488007      -51.9713097       1.08295226E+14
   17.4499989       19.3123398      -71.2942123      -51.9818726       1.07931102E+14
   17.4599991       19.2695847      -71.2549820      -51.9853935       1.07692144E+14
   17.4700012       19.2471104      -71.2339249      -51.9868088       1.07566550E+14
   17.4799995       19.2422905      -71.2294922      -51.9872055       1.07539614E+14
   17.4899998       19.2562332      -71.2441635      -51.9879265       1.07617536E+14
   17.5000000       19.2951794      -71.2835770      -51.9883957       1.07835195E+14
   17.5100002       19.3682842      -71.3610535      -51.9927711       1.08243762E+14
   17.5199986       19.4825115      -71.4702606      -51.9877472       1.08882135E+14
   17.5299988       19.6366138      -71.6253357      -51.9887238       1.09743369E+14
   17.5400009       19.8192196      -71.8144608      -51.9952431       1.10763901E+14
   17.5499992       20.0109863      -72.0052032      -51.9942207       1.11835622E+14
   17.5599995       20.1903114      -72.1779404      -51.9876328       1.12837825E+14
   17.5699997       20.3401527      -72.3383484      -51.9981956       1.13675243E+14
   17.5799999       20.4526539      -72.4459839      -51.9933319       1.14303978E+14
   17.5900002       20.5302467      -72.5315323      -52.0012817       1.14737635E+14
   17.6000004       20.5840149      -72.5881882      -52.0041733       1.15038124E+14
   17.6100006       20.6294155      -72.6396027      -52.0101891       1.15291846E+14
   17.6199989       20.6799698      -72.6948318      -52.0148582       1.15574382E+14
   17.6299992       20.7421303      -72.7554092      -52.0132751       1.15921780E+14
   17.6400013       20.8131599      -72.8268738      -52.0137177       1.16318745E+14
   17.6499996       20.8839245      -72.8939514      -52.0100288       1.16714235E+14
   17.6599998       20.9430714      -72.9535980      -52.0105286       1.17044788E+14
   17.6700001       20.9797306      -72.9877701      -52.0080376       1.17249654E+14
   17.6800003       20.9860802      -72.9940262      -52.0079460       1.17285155E+14
   17.6899986       20.9589195      -72.9535675      -51.9946442       1.17133363E+14
   17.6999989       20.9005165      -72.8940887      -51.9935684       1.16806962E+14
   17.7100010       20.8185081      -72.8151398      -51.9966354       1.16348642E+14
   17.7199993       20.7232647      -72.7226944      -51.9994316       1.15816352E+14
   17.7299995       20.6246433      -72.6242065      -51.9995651       1.15265178E+14
   17.7399998       20.5299931      -72.5307693      -52.0007706       1.14736209E+14
   17.7500000       20.4444370      -72.4496460      -52.0052071       1.14258067E+14
   17.7600002       20.3730412      -72.3808975      -52.0078545       1.13859055E+14
   17.7699986       20.3210697      -72.3196564      -51.9985847       1.13568599E+14
   17.7800007       20.2920742      -72.2941208      -52.0020485       1.13406548E+14
   17.7899990       20.2850628      -72.2772064      -51.9921379       1.13367373E+14
   17.7999992       20.2948265      -72.2762451      -51.9814186       1.13421924E+14
   17.8099995       20.3152695      -72.3019943      -51.9867287       1.13536185E+14
   17.8199997       20.3412514      -72.3310928      -51.9898415       1.13681392E+14
   17.8299999       20.3696842      -72.3601303      -51.9904480       1.13840298E+14
   17.8400002       20.3975296      -72.3939285      -51.9963989       1.13995906E+14
   17.8500004       20.4195042      -72.4190521      -51.9995422       1.14118724E+14
   17.8599987       20.4283981      -72.4309769      -52.0025787       1.14168426E+14
   17.8699989       20.4176807      -72.4156799      -51.9979973       1.14108532E+14
   17.8800011       20.3843689      -72.3918762      -52.0075073       1.13922363E+14
   17.8899994       20.3311882      -72.3387909      -52.0075989       1.13625147E+14
   17.8999996       20.2658176      -72.2733231      -52.0075073       1.13259814E+14
   17.9099998       20.1989670      -72.2029953      -52.0040245       1.12886202E+14
   17.9200001       20.1418591      -72.1430206      -52.0011597       1.12567041E+14
   17.9300003       20.1038666      -72.1060257      -52.0021553       1.12354717E+14
   17.9399986       20.0897198      -72.0858688      -51.9961510       1.12275646E+14
   17.9500008       20.0983162      -72.0918198      -51.9935036       1.12323688E+14
   17.9599991       20.1240444      -72.1144562      -51.9904137       1.12467485E+14
   17.9699993       20.1591339      -72.1516190      -51.9924850       1.12663577E+14
   17.9799995       20.1957130      -72.1895447      -51.9938316       1.12868016E+14
   17.9899998       20.2279377      -72.2203979      -51.9924583       1.13048111E+14
   18.0000000       20.2528419      -72.2442627      -51.9914246       1.13187295E+14
   18.0100002       20.2705555      -72.2615738      -51.9910164       1.13286289E+14
   18.0200005       20.2840557      -72.2751160      -51.9910622       1.13361736E+14
   18.0299988       20.2987976      -72.2899780      -51.9911804       1.13444120E+14
   18.0399990       20.3207264      -72.3053055      -51.9845848       1.13566670E+14
   18.0499992       20.3541851      -72.3422394      -51.9880524       1.13753668E+14
   18.0599995       20.4003716      -72.3814926      -51.9811249       1.14011794E+14
   18.0699997       20.4570026      -72.4312973      -51.9742928       1.14328288E+14
   18.0799999       20.5180988      -72.4996719      -51.9815712       1.14669738E+14
   18.0900002       20.5752411      -72.5545731      -51.9793320       1.14989092E+14
   18.1000004       20.6195850      -72.5958786      -51.9762955       1.15236917E+14
   18.1099987       20.6435604      -72.6199646      -51.9764061       1.15370900E+14
   18.1199989       20.6424332      -72.6247101      -51.9822807       1.15364608E+14
   18.1299992       20.6157513      -72.5927887      -51.9770317       1.15215492E+14
   18.1399994       20.5668755      -72.5413055      -51.9744301       1.14942326E+14
   18.1499996       20.5023956      -72.4811859      -51.9787941       1.14581968E+14
   18.1599998       20.4306374      -72.4149246      -51.9842834       1.14180942E+14
   18.1700001       20.3596783      -72.3415146      -51.9818344       1.13784362E+14
   18.1800003       20.2948246      -72.2782669      -51.9834404       1.13421924E+14
   18.1899986       20.2375698      -72.2206268      -51.9830551       1.13101941E+14
   18.1999989       20.1853924      -72.1550522      -51.9696617       1.12810336E+14
   18.2099991       20.1335068      -72.1013412      -51.9678345       1.12520367E+14
   18.2199993       20.0762367      -72.0444794      -51.9682426       1.12200300E+14
   18.2299995       20.0098782      -71.9682236      -51.9583473       1.11829431E+14
   18.2399998       19.9342823      -71.8999329      -51.9656487       1.11406955E+14
   18.2500000       19.8542099      -71.8197098      -51.9654999       1.10959457E+14
   18.2600002       19.7801037      -71.7422485      -51.9621468       1.10545294E+14
   18.2700005       19.7263203      -71.6874924      -51.9611702       1.10244714E+14
   18.2799988       19.7065830      -71.6687469      -51.9621620       1.10134412E+14
   18.2899990       19.7279949      -71.6918640      -51.9638634       1.10254075E+14
   18.3000011       19.7874146      -71.7496719      -51.9622612       1.10586147E+14
   18.3099995       19.8732662      -71.8364410      -51.9631729       1.11065958E+14
   18.3199978       19.9701080      -71.9329529      -51.9628448       1.11607166E+14
   18.3299999       20.0641384      -72.0391159      -51.9749794       1.12132679E+14
   18.3400002       20.1460590      -72.1220474      -51.9759865       1.12590504E+14
   18.3499985       20.2119579      -72.1885071      -51.9765472       1.12958806E+14
   18.3599987       20.2630138      -72.2344589      -51.9714470       1.13244136E+14
   18.3700008       20.3031654      -72.2761459      -51.9729767       1.13468540E+14
   18.3799992       20.3368912      -72.3150330      -51.9781456       1.13657023E+14
   18.3899994       20.3669643      -72.3458481      -51.9788780       1.13825097E+14
   18.3999996       20.3929844      -72.3787308      -51.9857407       1.13970506E+14
   18.4099998       20.4118309      -72.3909531      -51.9791222       1.14075825E+14
   18.4199982       20.4194107      -72.4076462      -51.9882393       1.14118195E+14
   18.4299984       20.4131546      -72.4139404      -52.0007896       1.14083232E+14
   18.4400005       20.3941078      -72.3994370      -52.0053253       1.13976789E+14
   18.4499989       20.3673878      -72.3766861      -52.0093002       1.13827463E+14
   18.4599991       20.3405361      -72.3400803      -51.9995422       1.13677391E+14
   18.4700012       20.3201256      -72.3278809      -52.0077515       1.13563323E+14
   18.4799995       20.3095551      -72.3036423      -51.9940910       1.13504242E+14
   18.4899979       20.3083153      -72.3033676      -51.9950485       1.13497321E+14
   18.5000000       20.3127308      -72.3072968      -51.9945679       1.13521992E+14
   18.5100002       20.3178158      -72.3020630      -51.9842415       1.13550404E+14
   18.5199986       20.3182373      -72.2982559      -51.9800224       1.13552761E+14
   18.5299988       20.3097839      -72.2897110      -51.9799271       1.13505525E+14
   18.5400009       20.2911224      -72.2774582      -51.9863319       1.13401229E+14
   18.5499992       20.2648087      -72.2475891      -51.9827805       1.13254169E+14
   18.5599995       20.2365742      -72.2153854      -51.9788094       1.13096371E+14
   18.5699997       20.2131653      -72.1879425      -51.9747772       1.12965550E+14
   18.5799999       20.1996517      -72.1730957      -51.9734383       1.12890028E+14
   18.5899982       20.1978989      -72.1785355      -51.9806366       1.12880230E+14
   18.5999985       20.2060738      -72.1901627      -51.9840889       1.12925923E+14
   18.6100006       20.2202148      -72.1959152      -51.9757004       1.13004943E+14
   18.6199989       20.2356949      -72.2120667      -51.9763756       1.13091463E+14
   18.6299992       20.2480583      -72.2223053      -51.9742432       1.13160560E+14
   18.6399994       20.2537518      -72.2210159      -51.9672623       1.13192378E+14
   18.6499996       20.2513294      -72.2244492      -51.9731216       1.13178839E+14
   18.6599979       20.2414284      -72.2158737      -51.9744453       1.13123508E+14
   18.6699982       20.2265091      -72.2020264      -51.9755211       1.13040133E+14
   18.6800003       20.2098732      -72.1778030      -51.9679298       1.12947154E+14
   18.6899986       20.1954613      -72.1663589      -51.9708939       1.12866607E+14
   18.6999989       20.1872349      -72.1602707      -51.9730377       1.12820629E+14
   18.7099991       20.1882133      -72.1600037      -51.9717865       1.12826107E+14
   18.7199993       20.1990185      -72.1813278      -51.9823151       1.12886479E+14
   18.7299995       20.2183952      -72.2017441      -51.9833488       1.12994776E+14
   18.7399998       20.2459488      -72.2318649      -51.9859161       1.13148766E+14
   18.7500000       20.2841835      -72.2706299      -51.9864426       1.13362457E+14
   18.7599983       20.3366356      -72.3196106      -51.9829750       1.13655589E+14
   18.7699986       20.4025497      -72.3927002      -51.9901543       1.14023966E+14
   18.7799988       20.4733982      -72.4682236      -51.9948235       1.14419925E+14
   18.7899990       20.5353069      -72.5263138      -51.9910049       1.14765897E+14
   18.7999992       20.5747032      -72.5647583      -51.9900589       1.14986081E+14
   18.8099995       20.5835915      -72.5710449      -51.9874573       1.15035758E+14
   18.8199997       20.5600739      -72.5600739      -52.0000000       1.14904325E+14
   18.8299980       20.5072594      -72.5082779      -52.0010185       1.14609155E+14
   18.8399982       20.4321156      -72.4246216      -51.9925079       1.14189205E+14
   18.8499985       20.3430767      -72.3308563      -51.9877815       1.13691584E+14
   18.8599987       20.2474003      -72.2360382      -51.9886360       1.13156886E+14
   18.8699989       20.1489506      -72.1438675      -51.9949150       1.12606677E+14
   18.8799992       20.0492859      -72.0455780      -51.9962883       1.12049682E+14
   18.8899994       19.9500217      -71.9454193      -51.9953995       1.11494918E+14
   18.8999996       19.8553848      -71.8501816      -51.9947929       1.10966017E+14
   18.9099979       19.7728233      -71.7698898      -51.9970665       1.10504610E+14
   18.9200001       19.7114964      -71.6977463      -51.9862480       1.10161868E+14
   18.9299984       19.6796761      -71.6604538      -51.9807816       1.09984029E+14
   18.9399986       19.6809063      -71.6557465      -51.9748383       1.09990908E+14
   18.9499989       19.7131500      -71.6942368      -51.9810867       1.10171104E+14
   18.9599991       19.7698078      -71.7516632      -51.9818535       1.10487748E+14
   18.9699993       19.8428688      -71.8292847      -51.9864159       1.10896072E+14
   18.9799976       19.9251099      -71.9203949      -51.9952812       1.11355693E+14
   18.9899979       20.0118752      -71.9983063      -51.9864273       1.11840596E+14
   18.9999981       20.1004734      -72.0921860      -51.9917145       1.12335750E+14
   19.0099983       20.1899452      -72.1818237      -51.9918747       1.12835779E+14
   19.0200005       20.2801304      -72.2738342      -51.9937019       1.13339800E+14
   19.0299988       20.3707485      -72.3695526      -51.9988060       1.13846237E+14
   19.0399990       20.4602623      -72.4661636      -52.0059013       1.14346500E+14
   19.0499992       20.5455360      -72.5564270      -52.0108871       1.14823073E+14
   19.0599995       20.6221943      -72.6373291      -52.0151329       1.15251496E+14
   19.0699978       20.6854210      -72.6962814      -52.0108604       1.15604850E+14
   19.0799980       20.7313385      -72.7443237      -52.0129852       1.15861474E+14
   19.0900002       20.7572803      -72.7604599      -52.0031776       1.16006446E+14
   19.0999985       20.7604580      -72.7648392      -52.0043869       1.16024205E+14
   19.1099987       20.7371922      -72.7512207      -52.0140305       1.15894181E+14
   19.1199989       20.6840725      -72.6905670      -52.0064964       1.15597308E+14
   19.1299992       20.5999565      -72.6079559      -52.0079956       1.15127219E+14
   19.1399975       20.4884796      -72.5067902      -52.0183144       1.14504197E+14
   19.1500015       20.3591614      -72.3792419      -52.0200806       1.13781485E+14
   19.1599998       20.2265682      -72.2418747      -52.0153008       1.13040461E+14
   19.1699982       20.1069279      -72.1215820      -52.0146484       1.12371830E+14
   19.1799984       20.0139980      -72.0298767      -52.0158768       1.11852458E+14
   19.1899986       19.9565392      -71.9800644      -52.0235291       1.11531342E+14
   19.2000008       19.9386978      -71.9640732      -52.0253754       1.11431635E+14
   19.2099991       19.9612465      -71.9794922      -52.0182419       1.11557648E+14
   19.2200012       20.0205097      -72.0346222      -52.0141106       1.11888856E+14
   19.2300014       20.1061592      -72.1112366      -52.0050812       1.12367526E+14
   19.2400017       20.2009048      -72.2140503      -52.0131493       1.12897032E+14
   19.2500019       20.2845230      -72.3038940      -52.0193672       1.13364345E+14
   19.2600002       20.3387775      -72.3532028      -52.0144196       1.13667568E+14
   19.2700005       20.3515186      -72.3639832      -52.0124626       1.13738770E+14
   19.2799988       20.3184090      -72.3235703      -52.0051651       1.13553726E+14
   19.2900028       20.2429142      -72.2357178      -51.9928017       1.13131813E+14
   19.3000011       20.1351891      -72.1226425      -51.9874535       1.12529762E+14
   19.3100014       20.0101032      -71.9961853      -51.9860802       1.11830698E+14
   19.3200016       19.8840008      -71.8681412      -51.9841423       1.11125945E+14
   19.3299999       19.7709713      -71.7480011      -51.9770317       1.10494258E+14
   19.3400002       19.6800423      -71.6625977      -51.9825554       1.09986076E+14
   19.3499985       19.6148777      -71.5924149      -51.9775314       1.09621893E+14
   19.3600025       19.5758533      -71.5541840      -51.9783325       1.09403789E+14
   19.3700008       19.5614452      -71.5417252      -51.9802818       1.09323275E+14
   19.3800011       19.5684128      -71.5470886      -51.9786758       1.09362215E+14
   19.3900013       19.5929871      -71.5842819      -51.9912949       1.09499545E+14
   19.4000015       19.6311493      -71.6325531      -52.0014038       1.09712826E+14
   19.4099998       19.6784916      -71.6828537      -52.0043640       1.09977411E+14
   19.4199982       19.7282162      -71.7265396      -51.9983253       1.10255309E+14
   19.4300022       19.7703476      -71.7614441      -51.9911003       1.10490768E+14
   19.4400005       19.7954941      -71.7874680      -51.9919739       1.10631303E+14
   19.4500008       19.7999420      -71.7845764      -51.9846382       1.10656158E+14
   19.4600010       19.7885895      -71.7661362      -51.9775467       1.10592724E+14
   19.4700012       19.7739315      -71.7492752      -51.9753418       1.10510800E+14
   19.4799995       19.7726383      -71.7520218      -51.9793816       1.10503569E+14
   19.4900017       19.8000183      -71.7777710      -51.9777527       1.10656594E+14
   19.5000019       19.8642960      -71.8347702      -51.9704781       1.11015820E+14
   19.5100002       19.9631863      -71.9286118      -51.9654312       1.11568486E+14
   19.5200005       20.0844326      -72.0531845      -51.9687500       1.12246101E+14
   19.5300007       20.2101746      -72.1890488      -51.9788742       1.12948832E+14
   19.5400009       20.3232250      -72.3026733      -51.9794464       1.13580653E+14
   19.5499992       20.4119339      -72.3906708      -51.9787331       1.14076412E+14
   19.5600014       20.4716988      -72.4487000      -51.9769974       1.14410421E+14
   19.5700016       20.5041523      -72.4708862      -51.9667282       1.14591791E+14
   19.5799999       20.5139542      -72.4764252      -51.9624710       1.14646577E+14
   19.5900002       20.5068073      -72.4719620      -51.9651489       1.14606639E+14
   19.6000004       20.4872360      -72.4583435      -51.9711075       1.14497243E+14
   19.6100006       20.4584255      -72.4339294      -51.9754982       1.14336232E+14
   19.6199989       20.4230194      -72.3953705      -51.9723511       1.14138370E+14
   19.6300011       20.3850594      -72.3608856      -51.9758263       1.13926222E+14
   19.6400013       20.3500175      -72.3207245      -51.9707069       1.13730382E+14
   19.6500015       20.3239441      -72.2932281      -51.9692841       1.13584663E+14
   19.6599998       20.3115463      -72.2758713      -51.9643288       1.13515373E+14
   19.6700001       20.3140831      -72.2805405      -51.9664574       1.13529558E+14
   19.6800003       20.3300953      -72.2935791      -51.9634857       1.13619040E+14
   19.6899986       20.3570004      -72.3209839      -51.9639816       1.13769405E+14
   19.7000008       20.3929138      -72.3627853      -51.9698715       1.13970111E+14
   19.7100010       20.4360886      -72.4080124      -51.9719200       1.14211401E+14
   19.7200012       20.4821014      -72.4524994      -51.9704018       1.14468562E+14
   19.7299995       20.5226212      -72.4967041      -51.9740829       1.14695013E+14
   19.7400017       20.5471916      -72.5353165      -51.9881248       1.14832326E+14
   19.7500000       20.5471401      -72.5323410      -51.9851990       1.14832041E+14
   19.7599983       20.5184441      -72.4977951      -51.9793472       1.14671667E+14
   19.7700005       20.4624195      -72.4376373      -51.9752197       1.14358563E+14
   19.7800007       20.3840179      -72.3592987      -51.9752808       1.13920392E+14
   19.7900009       20.2900677      -72.2667465      -51.9766808       1.13395341E+14
   19.8000011       20.1871147      -72.1641312      -51.9770126       1.12819958E+14
   19.8100014       20.0803089      -72.0490265      -51.9687157       1.12223049E+14
   19.8199997       19.9730301      -71.9435272      -51.9704971       1.11623507E+14
   19.8299980       19.8673267      -71.8408508      -51.9735260       1.11032756E+14
   19.8400002       19.7654171      -71.7391663      -51.9737511       1.10463212E+14
   19.8500004       19.6712894      -71.6512299      -51.9799385       1.09937154E+14
   19.8600006       19.5905113      -71.5714493      -51.9809418       1.09485721E+14
   19.8700008       19.5289516      -71.5107346      -51.9817848       1.09141679E+14
   19.8800011       19.4923763      -71.4707489      -51.9783745       1.08937274E+14
   19.8899994       19.4867420      -71.4728622      -51.9861183       1.08905774E+14
   19.8999996       19.5183582      -71.5023117      -51.9839516       1.09082464E+14
   19.9099998       19.5914173      -71.5778732      -51.9864578       1.09490779E+14
   19.9200001       19.7040119      -71.6964569      -51.9924431       1.10120042E+14
   19.9300003       19.8461552      -71.8393784      -51.9932251       1.10914443E+14
   19.9400005       20.0017929      -71.9948730      -51.9930840       1.11784258E+14
   19.9500008       20.1523666      -72.1454773      -51.9931107       1.12625770E+14
   19.9599991       20.2817211      -72.2745972      -51.9928741       1.13348683E+14
   19.9699993       20.3780556      -72.3703690      -51.9923134       1.13887072E+14
   19.9799995       20.4358654      -72.4259644      -51.9900970       1.14210151E+14
   19.9900017       20.4568520      -72.4616470      -52.0047951       1.14327449E+14
   20.0000000       20.4493637      -72.4589233      -52.0095558       1.14285598E+14
