 Time (ps)Ekin (1e12erg)Epot (1e12erg)E (1e12erg)T (K)
   0.00000000       16.8911705      -68.7072372      -51.8160667       94.3998795    
  0.100000009       19.9275627      -71.7609024      -51.8333397       111.369400    
  0.200000018       20.7887039      -72.6311798      -51.8424759       116.182068    
  0.300000012       20.7127590      -72.5785370      -51.8657837       115.757637    
  0.400000036       19.7960682      -71.6537628      -51.8576927       110.634514    
  0.500000060       19.9698906      -71.8326569      -51.8627663       111.605957    
  0.600000024       20.1122246      -72.0160904      -51.9038620       112.401421    
  0.700000048       20.7408257      -72.6456604      -51.9048347       115.914490    
  0.800000072       20.0413265      -71.9456100      -51.9042816       112.005188    
  0.900000036       20.3137188      -72.1865997      -51.8728790       113.527519    
   1.00000012       20.7264366      -72.6084366      -51.8820000       115.834076    
   1.10000014       20.8124886      -72.6945038      -51.8820114       116.314995    
   1.20000005       20.7071552      -72.6084824      -51.9013252       115.726318    
   1.30000007       20.8417778      -72.7366180      -51.8948364       116.478683    
   1.40000010       19.9912758      -71.8804932      -51.8892174       111.725471    
   1.50000000       19.9080429      -71.7835922      -51.8755531       111.260307    
   1.60000014       20.4838715      -72.3574219      -51.8735466       114.478447    
   1.70000005       20.1150322      -71.9565887      -51.8415527       112.417114    
   1.80000007       20.0260906      -71.8945770      -51.8684883       111.920044    
   1.90000010       20.4514942      -72.3067932      -51.8552971       114.297508    
   2.00000024       20.1911621      -72.0444260      -51.8532639       112.842575    
   2.10000014       20.4003658      -72.2657928      -51.8654251       114.011757    
   2.20000029       20.1005592      -71.9660187      -51.8654556       112.336220    
   2.30000019       20.4016037      -72.2873001      -51.8856964       114.018677    
   2.40000010       20.0724754      -71.9667358      -51.8942642       112.179276    
   2.50000048       20.9606094      -72.8210297      -51.8604202       117.142807    
   2.60000014       20.1909580      -72.0680313      -51.8770714       112.841438    
   2.70000005       20.3404274      -72.2094421      -51.8690109       113.676781    
   2.80000019       20.5001144      -72.3630447      -51.8629303       114.569221    
   2.90000033       20.6595936      -72.5255585      -51.8659706       115.460510    
   3.00000000       20.6344433      -72.4983368      -51.8638878       115.319954    
   3.10000014       20.7555141      -72.5996017      -51.8440857       115.996582    
   3.20000029       20.3672447      -72.2204208      -51.8531799       113.826653    
   3.30000019       19.9712601      -71.8325424      -51.8612785       111.613617    
   3.40000010       20.1598377      -72.0257111      -51.8658714       112.667519    
   3.50000024       20.3234234      -72.1852341      -51.8618126       113.581749    
   3.60000014       20.2670403      -72.1364288      -51.8693924       113.266640    
   3.70000052       20.7291164      -72.6203079      -51.8911896       115.849052    
   3.80000019       19.5807934      -71.4764557      -51.8956604       109.431404    
   3.90000010       19.8527336      -71.7312241      -51.8784904       110.951202    
   4.00000048       20.1352940      -72.0076904      -51.8723946       112.530350    
   4.10000038       20.4180069      -72.2691422      -51.8511353       114.110352    
   4.20000029       20.5184555      -72.3918533      -51.8734016       114.671730    
   4.30000019       20.1733875      -72.0411911      -51.8678055       112.743240    
   4.40000057       20.0938759      -71.9556503      -51.8617706       112.298882    
   4.50000048       20.8667374      -72.7204132      -51.8536720       116.618172    
   4.60000038       20.4929199      -72.3481598      -51.8552437       114.529015    
   4.70000029       20.0047283      -71.8604126      -51.8556862       111.800659    
   4.80000019       20.4162197      -72.2531357      -51.8369179       114.100357    
   4.90000010       20.3529301      -72.1771240      -51.8241959       113.746651    
   5.00000095       20.2259827      -72.0628815      -51.8369026       113.037178    
   5.10000038       20.0919247      -71.9546890      -51.8627663       112.287971    
   5.20000029       20.3357983      -72.2239075      -51.8881073       113.650917    
   5.30000019       20.7690411      -72.6530151      -51.8839760       116.072182    
   5.40000010       20.0825386      -71.9548492      -51.8723106       112.235512    
   5.50000000       19.7529106      -71.6008835      -51.8479729       110.393326    
   5.60000038       19.9120216      -71.7595139      -51.8474922       111.282547    
   5.70000029       19.9254684      -71.7567368      -51.8312683       111.357704    
   5.80000067       20.2275562      -72.0780869      -51.8505287       113.045975    
   5.90000010       20.0179100      -71.8857422      -51.8678284       111.874329    
   6.00000000       19.4701576      -71.3273087      -51.8571548       108.813095    
   6.10000038       20.1308231      -71.9997101      -51.8688889       112.505371    
   6.20000029       20.6757431      -72.5450974      -51.8693504       115.550774    
   6.30000019       20.5539532      -72.4197693      -51.8658180       114.870110    
   6.40000057       20.5271339      -72.3980484      -51.8709106       114.720230    
   6.50000000       20.0451279      -71.9276962      -51.8825722       112.026443    
   6.60000038       20.0555134      -71.9183426      -51.8628273       112.084473    
   6.70000076       19.2007294      -71.0665588      -51.8658257       107.307343    
   6.80000019       20.4623756      -72.3297653      -51.8673935       114.358322    
   6.90000057       20.2469406      -72.1234283      -51.8764839       113.154312    
   7.00000048       20.6940002      -72.5593185      -51.8653183       115.652802    
   7.10000038       20.8131332      -72.6800003      -51.8668671       116.318596    
   7.20000029       20.6874943      -72.5539322      -51.8664398       115.616440    
   7.30000019       20.0378971      -71.9012375      -51.8633385       111.986023    
   7.40000105       20.3171902      -72.1856308      -51.8684387       113.546921    
   7.50000095       20.4697552      -72.3320923      -51.8623390       114.399551    
   7.60000038       20.2372589      -72.1011200      -51.8638573       113.100204    
   7.70000029       20.1532116      -72.0291748      -51.8759613       112.630493    
   7.80000019       20.4167213      -72.2845612      -51.8678360       114.103172    
   7.90000105       20.3260746      -72.2031174      -51.8770447       113.596565    
   8.00000095       20.4778633      -72.3219299      -51.8440704       114.444870    
   8.10000038       20.0618420      -71.8907089      -51.8288689       112.119850    
   8.20000076       20.2926884      -72.1484299      -51.8557434       113.409981    
   8.30000019       19.9622288      -71.8226166      -51.8603859       111.563141    
   8.40000057       20.0407238      -71.9036255      -51.8629036       112.001831    
   8.50000095       20.8471069      -72.7247238      -51.8776131       116.508469    
   8.60000038       20.6857262      -72.5420151      -51.8562889       115.606552    
   8.70000076       20.3182793      -72.1664963      -51.8482132       113.553009    
   8.80000114       20.4147568      -72.2918930      -51.8771362       114.092186    
   8.90000057       20.1190376      -71.9793854      -51.8603477       112.439499    
   9.00000095       20.0624332      -71.9253159      -51.8628807       112.123146    
   9.10000038       21.0013504      -72.8516006      -51.8502502       117.370491    
   9.20000076       20.1165485      -71.9774246      -51.8608780       112.425591    
   9.30000114       20.9825497      -72.8100662      -51.8275146       117.265411    
   9.40000057       20.1085701      -71.9679718      -51.8594055       112.380997    
   9.50000000       20.7303009      -72.6089935      -51.8786964       115.855675    
   9.60000038       20.1770439      -72.0607910      -51.8837433       112.763680    
   9.70000076       20.2867908      -72.1725616      -51.8857651       113.377022    
   9.80000019       19.9722290      -71.8534088      -51.8811836       111.619026    
   9.90000057       20.0605183      -71.9467545      -51.8862381       112.112450    
   10.0000019       19.9494286      -71.8376923      -51.8882637       111.491608    
   10.1000013       20.0293503      -71.9439926      -51.9146423       111.938255    
   10.2000008       19.8941669      -71.7535782      -51.8594170       111.182755    
   10.3000002       20.6496334      -72.5247498      -51.8751144       115.404846    
   10.4000006       20.2312737      -72.1205902      -51.8893204       113.066750    
   10.5000010       20.0021763      -71.8859711      -51.8837929       111.786400    
   10.6000004       19.8433170      -71.7114105      -51.8680992       110.898567    
   10.7000008       20.5190296      -72.4059143      -51.8868828       114.674934    
   10.8000002       19.9664421      -71.8386612      -51.8722191       111.586685    
   10.9000006       20.4539051      -72.3205414      -51.8666306       114.310982    
   11.0000000       20.0436516      -71.9082184      -51.8645630       112.018181    
   11.0999994       19.9425430      -71.8172913      -51.8747482       111.453117    
   11.2000008       20.2732506      -72.1560745      -51.8828239       113.301346    
   11.3000011       19.5354328      -71.4294281      -51.8939934       109.177895    
   11.4000006       20.0495949      -71.9116745      -51.8620834       112.051407    
   11.5000010       19.6442776      -71.4860840      -51.8418007       109.786201    
   11.6000013       20.4970646      -72.3317337      -51.8346672       114.552177    
   11.7000017       20.6048393      -72.4775543      -51.8727150       115.154503    
   11.8000002       19.7668133      -71.6416016      -51.8747902       110.471016    
   11.8999996       20.2225037      -72.0993347      -51.8768272       113.017746    
   12.0000000       20.3547821      -72.2433090      -51.8885269       113.757004    
   12.1000004       20.1021118      -72.0033493      -51.9012337       112.344910    
   12.2000008       20.1618481      -72.0402756      -51.8784294       112.678749    
   12.3000021       20.5404816      -72.4128342      -51.8723488       114.794830    
   12.4000006       20.1416130      -71.9820328      -51.8404198       112.565659    
   12.5000010       19.7316437      -71.5740433      -51.8424034       110.274460    
   12.6000004       20.0881596      -71.9305267      -51.8423653       112.266937    
   12.7000008       20.1544476      -71.9811401      -51.8266945       112.637398    
   12.8000011       20.2252140      -72.0863953      -51.8611794       113.032890    
   12.9000006       19.8900261      -71.7369919      -51.8469658       111.159615    
   13.0000000       19.6226292      -71.4898605      -51.8672333       109.665222    
   13.1000004       20.0765629      -71.9357452      -51.8591843       112.202126    
   13.2000008       20.1899071      -72.0637054      -51.8737984       112.835564    
   13.3000011       20.6993122      -72.5634918      -51.8641777       115.682487    
   13.4000015       20.0964241      -71.9570847      -51.8606606       112.313118    
   13.5000010       20.7651215      -72.6364517      -51.8713303       116.050278    
   13.6000004       20.1519165      -72.0126190      -51.8607025       112.623253    
   13.7000008       20.0323887      -71.8875198      -51.8551292       111.955246    
   13.8000011       20.4344521      -72.2992554      -51.8648033       114.202263    
   13.9000015       20.4235420      -72.2720566      -51.8485146       114.141281    
   14.0000010       20.4795742      -72.3352203      -51.8556442       114.454437    
   14.1000013       19.7881985      -71.6498871      -51.8616867       110.590538    
   14.2000008       20.4616375      -72.3335190      -51.8718834       114.354187    
   14.3000002       19.6623802      -71.5559464      -51.8935661       109.887375    
   14.4000006       20.2202320      -72.0905380      -51.8703041       113.005043    
   14.5000000       20.6740818      -72.5646973      -51.8906174       115.541481    
   14.6000004       20.4897842      -72.3676605      -51.8778763       114.511490    
   14.7000017       20.1861668      -72.0549622      -51.8688011       112.814667    
   14.8000021       19.8833523      -71.7288208      -51.8454704       111.122322    
   14.9000015       20.2581959      -72.1112823      -51.8530846       113.217216    
   15.0000019       19.9543934      -71.7836609      -51.8292694       111.519356    
   15.1000004       19.6670856      -71.5449753      -51.8778915       109.913666    
   15.2000008       20.6010952      -72.4703522      -51.8692589       115.133583    
   15.3000011       20.6683064      -72.5563278      -51.8880196       115.509209    
   15.4000006       20.0742569      -71.9607391      -51.8864861       112.189232    
   15.5000010       19.5980778      -71.4850845      -51.8870010       109.528008    
   15.6000004       19.9733562      -71.8497009      -51.8763428       111.625328    
   15.7000008       20.2212753      -72.1163712      -51.8950920       113.010880    
   15.8000021       20.3900318      -72.3013763      -51.9113503       113.954002    
   15.9000015       20.4821911      -72.3874893      -51.9053001       114.469055    
   16.0000019       20.2794476      -72.1659851      -51.8865395       113.335983    
   16.1000004       20.2555237      -72.1430588      -51.8875389       113.202278    
   16.2000008       19.9622822      -71.8315506      -51.8692665       111.563438    
   16.3000011       20.3784924      -72.2528458      -51.8743591       113.889519    
   16.4000015       20.2586975      -72.1334763      -51.8747826       113.220016    
   16.5000019       19.8517818      -71.7423172      -51.8905411       110.945885    
   16.6000004       19.9217014      -71.8015823      -51.8798828       111.336639    
   16.7000008       19.8833561      -71.7561340      -51.8727798       111.122337    
   16.8000011       19.3007755      -71.1882248      -51.8874474       107.866470    
   16.8999996       20.3180161      -72.1811829      -51.8631668       113.551537    
   17.0000019       19.6653595      -71.5518188      -51.8864594       109.904022    
   17.1000023       20.2343712      -72.1340637      -51.8996925       113.084068    
   17.2000008       20.1585007      -72.0389862      -51.8804855       112.660042    
   17.3000011       20.2572289      -72.1341858      -51.8769608       113.211807    
   17.4000015       20.0876999      -71.9768372      -51.8891335       112.264366    
   17.5000000       20.4525509      -72.3254471      -51.8728943       114.303406    
   17.6000023       20.5600834      -72.4263611      -51.8662834       114.904373    
   17.7000008       20.5272045      -72.4132843      -51.8860779       114.720627    
   17.8000011       20.2992020      -72.2000046      -51.9008026       113.446381    
   17.9000015       20.4254131      -72.3377914      -51.9123840       114.151741    
   18.0000019       20.0258865      -71.9443665      -51.9184799       111.918907    
   18.1000023       20.0413513      -71.9384842      -51.8971329       112.005325    
   18.2000008       21.0245075      -72.8957977      -51.8712921       117.499901    
   18.3000011       20.3929348      -72.2728577      -51.8799171       113.970238    
   18.4000015       20.7466984      -72.6560135      -51.9093170       115.947311    
   18.5000019       20.1168880      -71.9967270      -51.8798409       112.427483    
   18.6000023       19.7642250      -71.6557007      -51.8914757       110.456551    
   18.7000027       20.2568321      -72.1448135      -51.8879814       113.209595    
   18.8000011       20.1939831      -72.0819244      -51.8879395       112.858353    
   18.9000015       20.4678631      -72.3385391      -51.8706741       114.388985    
   19.0000000       20.2164745      -72.0921860      -51.8757133       112.984047    
   19.1000004       20.3967934      -72.3004303      -51.9036331       113.991798    
   19.2000008       20.5938816      -72.4984512      -51.9045715       115.093262    
   19.3000011       20.3672867      -72.2607346      -51.8934441       113.826897    
   19.4000015       19.3776417      -71.2720413      -51.8944016       108.296051    
   19.5000019       19.8521137      -71.7434769      -51.8913651       110.947731    
   19.6000004       20.8746262      -72.7625275      -51.8878975       116.662270    
   19.7000008       20.1036701      -71.9737930      -51.8701248       112.353615    
   19.8000011       20.4709454      -72.3699341      -51.8989906       114.406212    
   19.9000034       20.3676872      -72.2717667      -51.9040794       113.829124    
   20.0000038       20.1429577      -72.0004349      -51.8574753       112.573181    
   20.1000004       20.1194630      -72.0083847      -51.8889236       112.441879    
   20.2000027       20.4251728      -72.3167343      -51.8915634       114.150398    
   20.3000011       20.6361275      -72.5196075      -51.8834801       115.329369    
   20.4000015       20.1638947      -72.0468216      -51.8829231       112.690193    
   20.5000019       20.3049259      -72.1624908      -51.8575668       113.478378    
   20.6000004       20.4147148      -72.2930450      -51.8783302       114.091957    
   20.7000027       20.8288498      -72.7067032      -51.8778534       116.406433    
   20.8000011       20.6432610      -72.5064697      -51.8632126       115.369232    
   20.9000034       20.6760292      -72.5392075      -51.8631821       115.552361    
   21.0000019       20.6785812      -72.5883865      -51.9098053       115.566620    
   21.1000004       20.4340076      -72.3342133      -51.9002075       114.199783    
   21.2000008       20.0675774      -71.9404297      -51.8728523       112.151901    
   21.2999992       20.1980610      -72.0577393      -51.8596802       112.881142    
   21.4000015       20.7142715      -72.5572357      -51.8429680       115.766090    
   21.5000000       20.5267715      -72.3783340      -51.8515625       114.718201    
   21.6000004       20.2107468      -72.0714111      -51.8606644       112.952034    
   21.7000008       20.2030087      -72.0616531      -51.8586464       112.908791    
   21.8000011       19.9506855      -71.8230209      -51.8723335       111.498627    
   21.9000015       19.9155788      -71.8036194      -51.8880386       111.302429    
   22.0000000       20.6145954      -72.4930115      -51.8784180       115.209023    
   22.1000004       20.5852718      -72.4601135      -51.8748436       115.045143    
   22.1999989       19.8956032      -71.7810364      -51.8854370       111.190781    
   22.3000031       20.1833801      -72.0678482      -51.8844604       112.799095    
   22.4000015       20.1154385      -72.0095139      -51.8940773       112.419388    
   22.5000019       20.0650883      -71.9287949      -51.8637085       112.137993    
   22.6000023       20.0272484      -71.8903961      -51.8631439       111.926521    
   22.7000027       20.7844181      -72.6470413      -51.8626251       116.158112    
   22.8000011       20.7933102      -72.6392288      -51.8459167       116.207809    
   22.9000015       20.3770504      -72.2198563      -51.8428040       113.881462    
   23.0000019       20.1873646      -72.0413666      -51.8540001       112.821358    
   23.1000023       20.1142292      -71.9758606      -51.8616333       112.412628    
   23.2000027       20.5207100      -72.3716431      -51.8509331       114.684326    
   23.3000011       20.2099762      -72.0629654      -51.8529892       112.947723    
   23.4000034       20.4391441      -72.2759399      -51.8367996       114.228477    
   23.5000000       20.6006374      -72.4465256      -51.8458900       115.131020    
   23.6000004       20.1981277      -72.0394058      -51.8412819       112.881508    
   23.7000008       20.2977390      -72.1445618      -51.8468208       113.438210    
   23.7999992       20.5490799      -72.4172897      -51.8682060       114.842880    
   23.9000015       20.3908291      -72.2671738      -51.8763428       113.958466    
   24.0000000       20.9016876      -72.7790375      -51.8773499       116.813507    
   24.1000023       20.4670258      -72.3494339      -51.8824081       114.384300    
   24.2000008       20.1326790      -71.9867020      -51.8540192       112.515732    
   24.3000011       20.1133709      -71.9867172      -51.8733444       112.407829    
   24.4000015       20.1478405      -72.0069351      -51.8590927       112.600464    
   24.5000000       20.3331108      -72.1977921      -51.8646774       113.635887    
   24.6000042       20.4033928      -72.2812729      -51.8778763       114.028679    
   24.7000027       20.3855343      -72.2523117      -51.8667755       113.928864    
   24.8000011       20.4289074      -72.2901306      -51.8612251       114.171265    
   24.9000015       20.7817307      -72.6449509      -51.8632202       116.143097    
   25.0000019       20.7575741      -72.6232681      -51.8656921       116.008095    
   25.1000023       20.7240429      -72.5806732      -51.8566284       115.820694    
   25.2000008       20.3017426      -72.1690521      -51.8673134       113.460587    
   25.3000011       19.6484261      -71.5151749      -51.8667488       109.809380    
   25.4000015       20.1279640      -71.9997330      -51.8717690       112.489380    
   25.5000019       19.7983532      -71.6645813      -51.8662300       110.647293    
   25.6000023       19.9756680      -71.8408508      -51.8651848       111.638252    
   25.7000027       20.2640839      -72.1085281      -51.8444443       113.250122    
   25.8000011       20.3171539      -72.1813583      -51.8642044       113.546715    
   25.9000034       20.6380405      -72.5168915      -51.8788567       115.340050    
   26.0000000       20.0716381      -71.9479370      -51.8762932       112.174599    
   26.1000004       19.8024330      -71.6533508      -51.8509140       110.670090    
   26.2000008       19.7848434      -71.6160202      -51.8311729       110.571785    
   26.2999992       20.0357609      -71.8720551      -51.8362961       111.974091    
   26.4000015       19.7516155      -71.5990067      -51.8473854       110.386078    
   26.5000000       19.8500500      -71.7106247      -51.8605728       110.936203    
   26.6000023       19.7901554      -71.6400375      -51.8498840       110.601471    
   26.7000008       20.4041328      -72.2580872      -51.8539543       114.032814    
   26.8000031       20.8673573      -72.7390671      -51.8717079       116.621643    
   26.9000015       20.1791573      -72.0503616      -51.8712006       112.775490    
   27.0000019       20.2649345      -72.1508408      -51.8859062       113.254868    
   27.1000042       20.2132301      -72.0752563      -51.8620262       112.965912    
   27.2000008       20.8075714      -72.6747131      -51.8671417       116.287514    
   27.3000050       19.6073380      -71.4805527      -51.8732147       109.579758    
   27.4000015       19.6482849      -71.4809265      -51.8326416       109.808594    
   27.5000019       20.2277088      -72.0745239      -51.8468170       113.046829    
   27.6000023       20.6040859      -72.4408112      -51.8367233       115.150291    
   27.7000008       21.0309563      -72.8819199      -51.8509674       117.535950    
   27.8000031       20.8261051      -72.6715317      -51.8454247       116.391090    
   27.9000015       20.6351357      -72.5134964      -51.8783607       115.323822    
   28.0000019       20.4936504      -72.3912888      -51.8976402       114.533096    
   28.1000023       20.6155300      -72.5197296      -51.9042015       115.214249    
   28.2000027       20.9319515      -72.8168793      -51.8849258       116.982643    
   28.3000031       20.4529686      -72.3328400      -51.8798714       114.305748    
   28.4000015       20.6256504      -72.4923096      -51.8666611       115.270813    
   28.5000000       20.4300823      -72.2947388      -51.8646584       114.177841    
   28.6000004       20.6818237      -72.5560913      -51.8742676       115.584747    
   28.7000008       20.3284359      -72.2067108      -51.8782768       113.609772    
   28.8000011       20.6603565      -72.5290070      -51.8686562       115.464775    
   28.9000015       20.8010120      -72.6731644      -51.8721504       116.250854    
   29.0000000       20.3601151      -72.2373657      -51.8772507       113.786804    
   29.1000023       20.1818333      -72.0505142      -51.8686829       112.790443    
   29.2000008       20.1253414      -71.9919739      -51.8666306       112.474731    
   29.3000031       20.1354885      -71.9692001      -51.8337097       112.531441    
   29.4000034       19.8543663      -71.6769409      -51.8225746       110.960327    
   29.5000000       19.9157238      -71.7549896      -51.8392677       111.303238    
   29.6000042       19.9475098      -71.8156509      -51.8681412       111.480881    
   29.7000008       20.4649353      -72.3498077      -51.8848724       114.372620    
   29.8000031       20.6439381      -72.5162430      -51.8723030       115.373016    
   29.9000015       20.1681042      -72.0561600      -51.8880577       112.713722    
   30.0000038       19.8883362      -71.7707977      -51.8824615       111.150169    
   30.1000023       20.6540661      -72.5324478      -51.8783760       115.429626    
   30.2000008       20.3119698      -72.1913605      -51.8793907       113.517738    
   30.3000031       20.5778770      -72.4568024      -51.8789253       115.003822    
   30.4000015       20.7113094      -72.6084213      -51.8971100       115.749535    
   30.5000038       20.5327663      -72.4268417      -51.8940773       114.751709    
   30.6000023       20.7052135      -72.5734711      -51.8682518       115.715469    
   30.7000027       20.3402462      -72.2039413      -51.8636971       113.675774    
   30.8000011       20.4490566      -72.3102112      -51.8611526       114.283882    
   30.9000015       20.0766563      -71.9180222      -51.8413658       112.202644    
   31.0000019       20.2618637      -72.1290894      -51.8672256       113.237709    
   31.1000004       20.4460945      -72.3355331      -51.8894386       114.267326    
   31.2000008       20.4817238      -72.3808365      -51.8991127       114.466446    
   31.3000011       20.4398899      -72.3126221      -51.8727303       114.232643    
   31.4000015       20.4742584      -72.3287659      -51.8545113       114.424721    
   31.5000019       19.8268547      -71.6935120      -51.8666573       110.806580    
   31.6000042       20.6864262      -72.5541458      -51.8677177       115.610474    
   31.7000027       19.9209843      -71.7917023      -51.8707199       111.332642    
   31.8000031       19.9891319      -71.8634491      -51.8743210       111.713493    
   31.9000034       20.5318184      -72.3858719      -51.8540573       114.746407    
   32.0000038       19.9068737      -71.7436752      -51.8367996       111.253769    
   32.1000023       19.8946075      -71.7218170      -51.8272095       111.185226    
   32.2000008       20.2095623      -72.0697021      -51.8601418       112.945419    
   32.3000031       20.1517372      -72.0280838      -51.8763466       112.622253    
   32.4000015       20.8011189      -72.6739349      -51.8728180       116.251457    
   32.5000038       20.6515770      -72.5360565      -51.8844833       115.415710    
   32.6000023       20.3819389      -72.2481308      -51.8661919       113.908783    
   32.7000008       20.5066128      -72.3707962      -51.8641815       114.605553    
   32.8000031       20.0426292      -71.9154663      -51.8728409       112.012474    
   32.9000015       19.7063732      -71.5923538      -51.8859825       110.133240    
   33.0000038       20.4765854      -72.3342056      -51.8576241       114.437729    
   33.1000023       19.9105434      -71.7843475      -51.8738022       111.274284    
   33.2000008       19.5386181      -71.4240570      -51.8854370       109.195694    
   33.3000031       20.5693359      -72.4543762      -51.8850365       114.956085    
   33.4000015       20.7466755      -72.6048737      -51.8581963       115.947182    
   33.5000038       20.0715942      -71.9352951      -51.8637047       112.174347    
   33.6000023       21.1253853      -72.9886246      -51.8632355       118.063683    
   33.7000008       20.2545338      -72.1410904      -51.8865585       113.196747    
   33.7999992       20.4079895      -72.2763062      -51.8683167       114.054367    
   33.9000015       20.1427269      -72.0257874      -51.8830605       112.571884    
   34.0000038       20.4829807      -72.3721542      -51.8891716       114.473473    
   34.1000023       20.2706356      -72.1470795      -51.8764458       113.286736    
   34.2000046       20.6547642      -72.5484314      -51.8936691       115.433517    
   34.3000031       20.6607113      -72.5467758      -51.8860664       115.466751    
   34.4000015       20.1777267      -72.0491104      -51.8713837       112.767502    
   34.5000038       20.0265541      -71.8664627      -51.8399124       111.922630    
   34.6000023       20.1746578      -72.0358200      -51.8611603       112.750351    
   34.7000008       20.6583977      -72.5246506      -51.8662529       115.453835    
   34.8000031       20.4240417      -72.3014908      -51.8774452       114.144081    
   34.8999977       19.8522549      -71.7362518      -51.8839989       110.948532    
   35.0000000       20.5810184      -72.4767151      -51.8956947       115.021370    
   35.0999985       20.9293385      -72.8271484      -51.8978081       116.968033    
   35.2000046       20.3034706      -72.1626816      -51.8592072       113.470238    
   35.3000031       20.5026741      -72.3720016      -51.8693275       114.583534    
   35.4000015       20.1825352      -72.0377045      -51.8551674       112.794373    
   35.5000038       20.6996098      -72.5512314      -51.8516197       115.684151    
   35.6000023       20.9246674      -72.7813339      -51.8566666       116.941933    
   35.7000046       20.3297844      -72.2072449      -51.8774605       113.617302    
   35.8000031       20.1925545      -72.0659485      -51.8733940       112.850365    
   35.9000015       20.3094559      -72.1949615      -51.8855019       113.503685    
   36.0000038       20.3332024      -72.2278061      -51.8946075       113.636398    
   36.1000023       20.1497269      -72.0640869      -51.9143600       112.611015    
   36.2000046       19.7246780      -71.6481323      -51.9234505       110.235542    
   36.3000031       20.0962601      -71.9954529      -51.8991928       112.312202    
   36.4000015       20.0166111      -71.9000473      -51.8834343       111.867065    
   36.5000038       19.8819351      -71.7820816      -51.9001427       111.114395    
   36.6000023       20.3454170      -72.2506332      -51.9052200       113.704666    
   36.7000008       20.1474018      -72.0247040      -51.8773003       112.598022    
   36.8000031       19.2675934      -71.1170044      -51.8494148       107.681015    
   36.9000015       19.5437355      -71.4128876      -51.8691559       109.224297    
   37.0000038       20.2563820      -72.1332321      -51.8768501       113.207077    
   37.1000023       19.6942806      -71.5705948      -51.8763161       110.065659    
   37.2000046       19.5951805      -71.4860840      -51.8909073       109.511810    
   37.3000031       20.6592484      -72.5670395      -51.9077950       115.458580    
   37.4000053       20.2793732      -72.1931686      -51.9137917       113.335571    
   37.5000000       21.1695080      -73.0985107      -51.9290009       118.310280    
   37.6000023       20.2212982      -72.1305161      -51.9092216       113.011002    
   37.7000008       20.5553722      -72.4560089      -51.9006348       114.878044    
   37.8000031       20.2266083      -72.1469727      -51.9203682       113.040680    
   37.9000015       21.1133709      -73.0201187      -51.9067459       117.996544    
   38.0000000       20.2066669      -72.1259232      -51.9192581       112.929230    
   38.1000023       20.1032429      -72.0352631      -51.9320145       112.351227    
   38.2000008       20.7336273      -72.6701813      -51.9365540       115.874260    
   38.3000031       20.6484184      -72.5763092      -51.9278908       115.398056    
   38.4000015       20.7440510      -72.6507339      -51.9066811       115.932518    
   38.5000038       20.5938625      -72.4893341      -51.8954697       115.093163    
   38.6000023       20.7157078      -72.6095963      -51.8938904       115.774109    
   38.6999969       20.4993591      -72.4039154      -51.9045563       114.565002    
   38.8000031       20.1482334      -72.0690079      -51.9207764       112.602669    
   38.9000015       20.9152660      -72.8208771      -51.9056091       116.889389    
   39.0000038       19.8648300      -71.7612610      -51.8964310       111.018806    
   39.0999985       20.0877686      -71.9882736      -51.9005089       112.264740    
   39.2000008       20.3249550      -72.2280045      -51.9030495       113.590309    
   39.3000031       20.2297707      -72.1115417      -51.8817711       113.058357    
   39.4000015       20.1607246      -72.0490952      -51.8883667       112.672478    
   39.5000000       20.8488960      -72.7291565      -51.8802605       116.518463    
   39.6000023       20.6573925      -72.5402069      -51.8828163       115.448212    
   39.7000008       19.8305130      -71.7021790      -51.8716660       110.827011    
   39.8000069       20.2493286      -72.1240463      -51.8747177       113.167656    
   39.9000053       20.2935467      -72.1884537      -51.8949127       113.414780    
   40.0000076       20.8641281      -72.7555542      -51.8914223       116.603592    
   40.1000023       20.1991997      -72.0754242      -51.8762207       112.887505    
   40.2000008       19.7623539      -71.6471252      -51.8847733       110.446091    
   40.3000069       19.9928722      -71.8660202      -51.8731461       111.734398    
   40.4000053       19.8004665      -71.6705093      -51.8700409       110.659096    
   40.5000038       21.0248127      -72.8969193      -51.8721046       117.501610    
   40.6000023       20.7967682      -72.6632767      -51.8665123       116.227142    
   40.7000046       20.5716820      -72.4361038      -51.8644218       114.969193    
   40.8000031       20.9823246      -72.8320770      -51.8497467       117.264160    
   40.9000053       20.4901695      -72.3591614      -51.8689880       114.513649    
   41.0000038       20.6127987      -72.4924011      -51.8796043       115.198982    
   41.1000061       20.1311264      -72.0102158      -51.8790894       112.507057    
   41.2000008       20.3480911      -72.2428970      -51.8948059       113.719612    
   41.3000031       20.2506523      -72.1445084      -51.8938522       113.175049    
   41.4000053       20.6879005      -72.5503464      -51.8624458       115.618713    
   41.5000000       20.3447838      -72.1849594      -51.8401794       113.701126    
   41.6000023       20.6920052      -72.5473938      -51.8553886       115.641647    
   41.7000008       19.9950066      -71.8605270      -51.8655205       111.746330    
   41.8000069       20.4670563      -72.3233795      -51.8563194       114.384476    
   41.9000015       20.7669621      -72.6430283      -51.8760643       116.060562    
   42.0000038       20.0583687      -71.9405212      -51.8821564       112.100433    
   42.1000023       20.0764923      -71.9697418      -51.8932495       112.201729    
   42.2000008       20.0233498      -71.9221497      -51.8987961       111.904724    
   42.3000031       20.0886364      -71.9951477      -51.9065056       112.269600    
   42.4000015       20.1766396      -72.0775833      -51.9009399       112.761421    
   42.5000038       20.2337494      -72.1174469      -51.8836937       113.080582    
   42.5999985       20.1614971      -72.0385742      -51.8770790       112.676796    
   42.7000008       20.0841579      -71.9627151      -51.8785553       112.244568    
   42.8000031       20.2648754      -72.1500320      -51.8851547       113.254539    
   42.9000053       20.4014053      -72.2885818      -51.8871803       114.017563    
   43.0000000       20.6529560      -72.5380936      -51.8851357       115.423416    
   43.1000023       19.9799099      -71.8609924      -51.8810844       111.661957    
   43.2000008       20.1197758      -71.9948044      -51.8750305       112.443626    
   43.2999992       20.2992020      -72.1570129      -51.8578148       113.446381    
   43.4000015       19.7780819      -71.6587067      -51.8806229       110.533997    
   43.5000000       20.4258766      -72.3075104      -51.8816376       114.154327    
   43.6000023       20.0588913      -71.9278717      -51.8689804       112.103363    
   43.6999969       20.6326447      -72.5071716      -51.8745270       115.309898    
   43.8000031       20.7900524      -72.6848221      -51.8947716       116.189606    
   43.9000015       20.4252911      -72.3124924      -51.8871956       114.151062    
   44.0000000       20.1599369      -72.0537033      -51.8937683       112.668068    
   44.0999985       20.7874165      -72.6594086      -51.8719902       116.174881    
   44.2000008       20.1504116      -72.0315247      -51.8811188       112.614838    
   44.3000031       20.1756401      -72.0608597      -51.8852196       112.755836    
   44.3999977       20.7503490      -72.6290359      -51.8786850       115.967720    
   44.5000038       20.9128208      -72.7839203      -51.8710976       116.875717    
   44.6000061       20.9210987      -72.7795715      -51.8584747       116.921982    
   44.7000046       19.8746605      -71.7188568      -51.8442001       111.073746    
   44.8000031       20.4304924      -72.2873611      -51.8568726       114.180130    
   44.9000053       20.8047676      -72.6611099      -51.8563461       116.271843    
   45.0000038       20.5255699      -72.3966293      -51.8710594       114.711494    
   45.1000023       20.2920704      -72.1565704      -51.8645020       113.406525    
   45.2000046       20.3180275      -72.1962204      -51.8781967       113.551590    
   45.3000069       19.5169792      -71.3850784      -51.8680992       109.074776    
   45.4000053       19.6892338      -71.5816498      -51.8924141       110.037453    
   45.5000038       20.5825691      -72.4749680      -51.8923988       115.030037    
   45.6000023       20.6402969      -72.5307007      -51.8904076       115.352669    
   45.7000084       20.1794109      -72.0708389      -51.8914223       112.776917    
   45.8000031       20.6864033      -72.5803680      -51.8939629       115.610344    
   45.9000015       20.9185143      -72.8165283      -51.8980179       116.907539    
   46.0000038       20.1971531      -72.0997391      -51.9025841       112.876060    
   46.1000023       20.1503963      -72.0423813      -51.8919830       112.614754    
   46.2000046       20.2770920      -72.1634521      -51.8863640       113.322823    
   46.3000031       20.4429245      -72.3130493      -51.8701248       114.249611    
   46.4000053       20.3161278      -72.1791382      -51.8630104       113.540977    
   46.5000000       19.9928493      -71.8674927      -51.8746414       111.734268    
   46.6000023       20.1432152      -72.0375900      -51.8943787       112.574623    
   46.7000046       20.4543152      -72.3370438      -51.8827324       114.313271    
   46.8000069       20.2774220      -72.1646805      -51.8872604       113.324661    
   46.9000015       20.8182507      -72.6953812      -51.8771324       116.347206    
   47.0000000       20.7380619      -72.6191864      -51.8811226       115.899048    
   47.1000023       20.1208324      -71.9973831      -51.8765564       112.449524    
   47.2000008       19.4480724      -71.3098984      -51.8618279       108.689674    
   47.3000031       19.7692146      -71.6275330      -51.8583145       110.484436    
   47.4000015       20.1244926      -71.9782486      -51.8537560       112.469986    
   47.5000038       19.6547260      -71.4957275      -51.8409996       109.844597    
   47.5999985       20.6711102      -72.5319443      -51.8608360       115.524872    
   47.7000046       20.7779808      -72.6616440      -51.8836594       116.122139    
   47.8000031       20.6171131      -72.5083771      -51.8912621       115.223106    
   47.9000053       20.3540554      -72.2164612      -51.8624077       113.752945    
   48.0000000       19.9073753      -71.7803802      -51.8730049       111.256584    
   48.0999985       20.5376835      -72.4192505      -51.8815689       114.779198    
   48.2000046       20.7075787      -72.5896530      -51.8820801       115.728683    
   48.2999992       20.5326805      -72.4269714      -51.8942947       114.751236    
   48.4000015       20.3131237      -72.2129593      -51.8998299       113.524193    
   48.5000000       20.4917564      -72.3617020      -51.8699455       114.522514    
   48.6000023       19.7786198      -71.6389084      -51.8602905       110.537003    
   48.7000008       19.9110680      -71.7839737      -51.8729095       111.277214    
   48.8000031       19.8962040      -71.7737122      -51.8775101       111.194145    
   48.9000015       19.8488865      -71.7102203      -51.8613358       110.929703    
   49.0000000       19.9701843      -71.8339996      -51.8638115       111.607605    
   49.0999985       20.2981014      -72.1766357      -51.8785362       113.440239    
   49.2000084       20.1046505      -71.9750824      -51.8704338       112.359093    
   49.3000069       20.0147152      -71.8796234      -51.8649101       111.856476    
   49.4000053       20.2505836      -72.1261673      -51.8755798       113.174675    
   49.5000038       20.3548851      -72.2349930      -51.8801117       113.757576    
   49.6000023       20.0256920      -71.9002457      -51.8745575       111.917824    
   49.7000046       20.1872311      -72.0607605      -51.8735313       112.820610    
   49.8000031       20.1407814      -72.0082397      -51.8674583       112.561020    
   49.9000053       20.4762077      -72.3563309      -51.8801231       114.435616    
   50.0000038       20.7914886      -72.6720581      -51.8805695       116.197632    
   50.1000023       20.5636539      -72.4309921      -51.8673363       114.924324    
   50.2000046       20.8239880      -72.7009811      -51.8769951       116.379265    
   50.3000069       20.2928371      -72.1708527      -51.8780174       113.410812    
   50.4000015       19.3634892      -71.2186432      -51.8551521       108.216957    
   50.5000038       20.6884785      -72.5543900      -51.8659134       115.621941    
   50.6000023       20.4053040      -72.2874222      -51.8821220       114.039360    
   50.7000084       19.6550159      -71.5305176      -51.8755035       109.846214    
   50.8000031       20.6483154      -72.5152512      -51.8669357       115.397476    
   50.9000015       20.2852993      -72.1516571      -51.8663597       113.368690    
   51.0000038       20.4762363      -72.3613281      -51.8850937       114.435783    
   51.1000023       20.7753029      -72.6483002      -51.8729935       116.107178    
   51.2000046       19.8181858      -71.6962280      -51.8780403       110.758118    
   51.3000031       20.7994843      -72.6861801      -51.8866997       116.242317    
   51.4000053       20.9530907      -72.8585510      -51.9054604       117.100784    
   51.5000000       20.2681046      -72.1846390      -51.9165344       113.272591    
   51.6000023       20.2082558      -72.1187515      -51.9104919       112.938110    
   51.7000046       20.6266956      -72.5503235      -51.9236336       115.276649    
   51.8000069       20.7740746      -72.6977539      -51.9236717       116.100311    
   51.9000015       20.4525433      -72.3646317      -51.9120941       114.303368    
   52.0000000       20.6606884      -72.5726929      -51.9120026       115.466629    
   52.1000061       20.7813931      -72.6903687      -51.9089737       116.141220    
   52.2000008       20.8110123      -72.7022018      -51.8911934       116.306747    
   52.3000031       20.4625053      -72.3522491      -51.8897438       114.359039    
   52.4000015       20.2225895      -72.1118317      -51.8892441       113.018219    
   52.5000038       20.6154289      -72.4991074      -51.8836823       115.213692    
   52.5999985       19.9790020      -71.8672485      -51.8882446       111.656883    
   52.7000046       20.0134735      -71.8870010      -51.8735313       111.849533    
   52.8000031       20.4306831      -72.2986908      -51.8680038       114.181198    
   52.8999977       20.0833416      -71.9488220      -51.8654823       112.239998    
   53.0000000       19.9172649      -71.7842941      -51.8670273       111.311852    
   53.1000061       20.1173649      -71.9803162      -51.8629494       112.430145    
   53.2000046       19.7488041      -71.6010666      -51.8522568       110.370377    
   53.2999992       20.5222492      -72.3745041      -51.8522530       114.692932    
   53.4000015       19.6248951      -71.4740677      -51.8491745       109.677879    
   53.5000000       20.3080444      -72.1815491      -51.8735046       113.495804    
   53.6000061       20.2387695      -72.0879364      -51.8491707       113.108643    
   53.7000008       20.6196041      -72.4698181      -51.8502197       115.237015    
   53.8000031       20.5180645      -72.3693161      -51.8512535       114.669548    
   53.9000053       20.9041691      -72.7802353      -51.8760643       116.827370    
   54.0000038       20.4075603      -72.2810593      -51.8735008       114.051971    
   54.1000061       20.1669521      -72.0515900      -51.8846359       112.707275    
   54.2000084       20.3225346      -72.2046967      -51.8821564       113.576790    
   54.3000069       20.0262909      -71.8708954      -51.8446045       111.921165    
   54.4000015       20.3268757      -72.1958618      -51.8689842       113.601044    
   54.5000038       20.1682587      -72.0320740      -51.8638153       112.714584    
   54.6000099       20.4746094      -72.3323822      -51.8577766       114.426689    
   54.7000046       20.2831841      -72.1506119      -51.8674278       113.356873    
   54.8000031       20.4886532      -72.3621750      -51.8735275       114.505165    
   54.9000053       20.4119892      -72.2961197      -51.8841286       114.076721    
   55.0000038       20.1872120      -72.0718460      -51.8846359       112.820503    
   55.1000061       20.2267151      -72.1022720      -51.8755608       113.041275    
   55.2000046       20.4555683      -72.3457947      -51.8902283       114.320267    
   55.3000069       20.7793999      -72.6675873      -51.8881874       116.130074    
   55.4000015       20.1569576      -72.0248337      -51.8678780       112.651421    
   55.5000000       19.7171116      -71.5991745      -51.8820610       110.193253    
   55.6000061       20.1574974      -72.0623016      -51.9048042       112.654434    
   55.7000046       21.1307468      -73.0711060      -51.9403572       118.093643    
   55.8000031       20.4868202      -72.4028625      -51.9160423       114.494934    
   55.9000015       20.4692993      -72.3868713      -51.9175758       114.397011    
   56.0000038       19.6088467      -71.5466843      -51.9378395       109.588181    
   56.1000023       19.6658745      -71.5713043      -51.9054298       109.906898    
   56.2000046       20.4932957      -72.3880768      -51.8947792       114.531120    
   56.3000031       20.1315365      -71.9968796      -51.8653450       112.509354    
   56.4000053       20.0966377      -71.9766312      -51.8799934       112.314316    
   56.5000000       19.9515057      -71.8461838      -51.8946762       111.503212    
   56.6000061       19.9420147      -71.8118515      -51.8698425       111.450172    
   56.7000046       20.5297318      -72.4127197      -51.8829918       114.734756    
   56.8000031       20.7322845      -72.6066666      -51.8743782       115.866753    
   56.9000015       20.5587482      -72.4351654      -51.8764114       114.896919    
   57.0000000       20.1665535      -72.0586395      -51.8920822       112.705055    
   57.1000061       20.3576565      -72.2365417      -51.8788872       113.773071    
   57.2000008       20.6577072      -72.5508652      -51.8931580       115.449974    
   57.3000031       20.6230392      -72.5165863      -51.8935509       115.256218    
   57.4000015       20.6543522      -72.5267029      -51.8723526       115.431213    
   57.5000038       20.0302925      -71.8996353      -51.8693390       111.943535    
   57.6000023       20.2316608      -72.0867996      -51.8551407       113.068916    
   57.7000046       20.4176788      -72.2758484      -51.8581696       114.108521    
   57.8000031       20.5896034      -72.4705811      -51.8809738       115.069351    
   57.8999977       20.1493988      -72.0116348      -51.8622322       112.609184    
   58.0000000       20.7311859      -72.5832901      -51.8521004       115.860619    
   58.1000023       20.5220470      -72.3877792      -51.8657341       114.691803    
   58.2000046       20.4909573      -72.3576660      -51.8667107       114.518051    
   58.2999992       19.8388290      -71.6877899      -51.8489571       110.873489    
   58.4000015       20.6657963      -72.5097580      -51.8439598       115.495171    
   58.5000000       20.4660110      -72.2972565      -51.8312492       114.378632    
   58.6000061       20.5285130      -72.3866730      -51.8581581       114.727936    
   58.7000046       20.4417000      -72.2937164      -51.8520203       114.242767    
   58.8000069       20.6480770      -72.4981003      -51.8500214       115.396149    
   58.9000053       19.9738197      -71.8364792      -51.8626595       111.627914    
   59.0000000       20.1679306      -72.0462036      -51.8782730       112.712746    
   59.1000061       20.2491302      -72.1092224      -51.8600922       113.166550    
   59.2000084       19.7138748      -71.5927658      -51.8788910       110.175156    
   59.3000031       20.1956196      -72.0735092      -51.8778877       112.867493    
   59.4000015       19.7898293      -71.6793365      -51.8895073       110.599648    
   59.5000038       20.3139076      -72.2064819      -51.8925743       113.528572    
   59.6000061       19.9950409      -71.8673019      -51.8722649       111.746513    
   59.7000046       19.7409744      -71.6375961      -51.8966255       110.326614    
   59.8000031       20.8832588      -72.7667389      -51.8834763       116.710510    
   59.9000053       20.0390434      -71.9346542      -51.8956108       111.992432    
   60.0000076       20.0907574      -71.9783249      -51.8875694       112.281448    
   60.1000061       20.1548977      -72.0034332      -51.8485336       112.639908    
   60.2000046       20.7961845      -72.6771927      -51.8810043       116.223877    
   60.3000069       20.0979767      -71.9769135      -51.8789330       112.321800    
   60.4000015       19.9727173      -71.8628693      -51.8901520       111.621758    
   60.5000038       20.0050011      -71.8799057      -51.8749046       111.802177    
   60.6000061       20.1533966      -72.0226593      -51.8692627       112.631516    
   60.7000046       20.3324184      -72.2153244      -51.8829079       113.632019    
   60.8000031       20.2201214      -72.0741348      -51.8540115       113.004425    
   60.9000015       20.2719307      -72.1533737      -51.8814430       113.293968    
   61.0000076       20.4829884      -72.3654404      -51.8824501       114.473518    
   61.1000023       20.2094231      -72.0898514      -51.8804321       112.944633    
   61.2000046       20.1454277      -72.0364532      -51.8910255       112.586990    
   61.3000031       19.9800720      -71.8959198      -51.9158478       111.662857    
   61.4000053       20.0153179      -71.9271164      -51.9118004       111.859833    
   61.5000038       20.0073700      -71.8846970      -51.8773270       111.815422    
   61.6000023       20.3657913      -72.2431107      -51.8773232       113.818527    
   61.7000046       20.6267452      -72.5137024      -51.8869591       115.276932    
   61.8000031       20.8773556      -72.7982635      -51.9209137       116.677521    
   61.9000015       20.5889549      -72.4890594      -51.9001007       115.065735    
   62.0000038       20.1113644      -72.0145187      -51.9031563       112.396614    
   62.1000061       20.2793255      -72.1784668      -51.8991394       113.335297    
   62.2000008       20.3078899      -72.2186890      -51.9107971       113.494942    
   62.3000031       20.9799309      -72.8928223      -51.9128914       117.250786    
   62.4000015       20.4030209      -72.2946320      -51.8916168       114.026604    
   62.5000076       20.0495090      -71.9097061      -51.8601952       112.050919    
   62.6000023       20.3380775      -72.2226105      -51.8845329       113.663643    
   62.7000008       19.9587917      -71.8453827      -51.8865929       111.543930    
   62.8000031       20.3416424      -72.2160873      -51.8744431       113.683578    
   62.8999977       20.8082047      -72.6876755      -51.8794708       116.291054    
   63.0000038       20.8989525      -72.7814865      -51.8825378       116.798218    
   63.1000023       20.4104881      -72.2459030      -51.8354187       114.068329    
   63.2000084       19.8197651      -71.6668167      -51.8470535       110.766953    
   63.3000031       19.7538910      -71.6044769      -51.8505859       110.398804    
   63.4000053       20.1920815      -72.0477829      -51.8557014       112.847725    
   63.5000076       19.9118309      -71.7365723      -51.8247452       111.281479    
   63.6000061       19.7202587      -71.5490723      -51.8288116       110.210838    
   63.7000046       20.0728436      -71.9487839      -51.8759460       112.181328    
   63.8000069       20.3218384      -72.1972961      -51.8754578       113.572891    
   63.9000053       20.3986645      -72.2938080      -51.8951454       114.002258    
   64.0000076       20.3630238      -72.2393646      -51.8763428       113.803070    
   64.1000061       19.8305779      -71.7286835      -51.8981056       110.827385    
   64.2000046       20.8577843      -72.7944565      -51.9366722       116.568138    
   64.3000031       20.3482132      -72.2712402      -51.9230232       113.720291    
   64.4000015       19.9210243      -71.8120804      -51.8910522       111.332863    
   64.5000076       20.8257484      -72.7163696      -51.8906174       116.389107    
   64.6000061       20.5461216      -72.4382324      -51.8921089       114.826347    
   64.7000046       20.3540649      -72.2289276      -51.8748589       113.752998    
   64.8000031       19.9471264      -71.8230972      -51.8759689       111.478729    
   64.9000015       20.4020119      -72.2724380      -51.8704262       114.020958    
   65.0000076       20.1595650      -72.0279160      -51.8683548       112.665993    
   65.1000061       20.2352467      -72.1222992      -51.8870544       113.088959    
   65.2000046       20.4064102      -72.2955475      -51.8891373       114.045547    
   65.3000031       20.5566959      -72.4433594      -51.8866615       114.885452    
   65.4000015       20.1470757      -71.9961853      -51.8491135       112.596191    
   65.5000076       20.3242378      -72.1652374      -51.8409996       113.586311    
   65.6000061       20.2971077      -72.1542664      -51.8571625       113.434677    
   65.7000046       20.2677059      -72.1309662      -51.8632622       113.270363    
   65.8000031       19.8839188      -71.7690201      -51.8851013       111.125488    
   65.9000015       20.7848835      -72.6487122      -51.8638306       116.160721    
   66.0000076       20.5300522      -72.4217606      -51.8917122       114.736534    
   66.1000061       20.6454792      -72.5240097      -51.8785286       115.381630    
   66.2000046       20.2762852      -72.1482162      -51.8719292       113.318314    
   66.3000031       20.4539490      -72.3324432      -51.8784943       114.311226    
   66.4000015       20.5289059      -72.4134979      -51.8845940       114.730141    
   66.5000000       20.3510761      -72.2534256      -51.9023514       113.736298    
   66.6000061       20.8610802      -72.7528381      -51.8917580       116.586563    
   66.7000046       20.1500950      -72.0271072      -51.8770103       112.613068    
   66.8000031       20.5007267      -72.3610306      -51.8603058       114.572647    
   66.9000015       20.3868179      -72.2532349      -51.8664207       113.936050    
   67.0000076       20.3912830      -72.2541199      -51.8628349       113.960999    
   67.1000061       20.1235161      -71.9985352      -51.8750191       112.464523    
   67.2000046       20.9413891      -72.8330688      -51.8916855       117.035385    
   67.3000031       20.6727047      -72.5482254      -51.8755188       115.533783    
   67.4000015       20.8729401      -72.7514954      -51.8785553       116.652847    
   67.5000076       20.8466892      -72.7165909      -51.8698997       116.506134    
   67.5999985       19.9984245      -71.8662491      -51.8678207       111.765427    
   67.7000046       20.2170696      -72.1026764      -51.8856049       112.987366    
   67.8000031       20.2374878      -72.1317902      -51.8943024       113.101479    
   67.9000092       20.7776089      -72.6637878      -51.8861809       116.120064    
   68.0000076       20.8288269      -72.7048492      -51.8760223       116.406303    
   68.1000061       20.2558651      -72.1156158      -51.8597527       113.204185    
   68.2000046       19.6455917      -71.4896545      -51.8440628       109.793549    
   68.3000031       20.1686554      -72.0360565      -51.8674011       112.716797    
   68.4000092       20.4510384      -72.2930527      -51.8420181       114.294952    
   68.5000076       20.7734928      -72.6165009      -51.8430099       116.097054    
   68.6000061       21.0179691      -72.8807220      -51.8627548       117.463364    
   68.7000046       21.3060150      -73.1834641      -51.8774529       119.073166    
   68.8000031       20.5432301      -72.4349213      -51.8916893       114.810188    
   68.9000092       19.7314987      -71.6145706      -51.8830681       110.273659    
   69.0000076       20.3393326      -72.2203674      -51.8810349       113.670662    
   69.0999985       20.4502850      -72.3276596      -51.8773689       114.290749    
   69.2000046       20.3878441      -72.2678070      -51.8799667       113.941780    
   69.2999954       20.2708549      -72.1254654      -51.8546104       113.287956    
   69.4000015       20.6312275      -72.5024796      -51.8712502       115.301979    
   69.5000000       20.0377846      -71.9004364      -51.8626518       111.985397    
   69.6000061       20.2942028      -72.1325607      -51.8383598       113.418449    
   69.6999969       20.4954433      -72.3525696      -51.8571243       114.543121    
   69.7999954       19.9133072      -71.7516174      -51.8383102       111.289726    
   69.9000015       19.4357224      -71.2969208      -51.8611946       108.620644    
   70.0000000       19.5987148      -71.4594116      -51.8606987       109.531563    
   70.0999985       19.8051949      -71.6795273      -51.8743362       110.685524    
   70.1999969       19.7542095      -71.6092682      -51.8550529       110.400581    
   70.3000107       20.0731888      -71.9419327      -51.8687401       112.183266    
   70.4000092       20.8491135      -72.7279892      -51.8788757       116.519684    
   70.5000076       20.3382416      -72.2141190      -51.8758736       113.664566    
   70.6000061       20.7350292      -72.6179504      -51.8829231       115.882103    
   70.7000046       20.1060257      -71.9716797      -51.8656502       112.366783    
   70.8000031       20.1777916      -72.0241470      -51.8463516       112.767860    
   70.9000092       20.1220837      -71.9906845      -51.8685989       112.456528    
   71.0000076       20.4049129      -72.2766037      -51.8716888       114.037178    
   71.1000061       20.2610989      -72.1434402      -51.8823471       113.233437    
   71.2000046       20.3313789      -72.2005081      -51.8691292       113.626213    
   71.3000107       20.8611889      -72.7206955      -51.8595085       116.587173    
   71.4000092       20.5154381      -72.3632584      -51.8478241       114.654869    
   71.5000076       19.7407646      -71.5875168      -51.8467484       110.325439    
   71.6000061       20.1388531      -71.9845810      -51.8457260       112.550240    
   71.7000046       19.9015179      -71.7482910      -51.8467751       111.223846    
   71.8000031       19.8707085      -71.7179718      -51.8472633       111.051659    
   71.9000092       20.1798515      -72.0550385      -51.8751907       112.779366    
   72.0000076       19.8700199      -71.7755585      -51.9055367       111.047813    
   72.1000061       20.6515141      -72.5413971      -51.8898811       115.415352    
   72.2000046       20.3524227      -72.2569580      -51.9045372       113.743820    
   72.3000031       20.8256187      -72.7104340      -51.8848152       116.388374    
   72.4000092       20.3076401      -72.1640091      -51.8563728       113.493538    
   72.5000076       20.2212448      -72.0816422      -51.8604012       113.010704    
   72.6000061       19.7659206      -71.6298981      -51.8639755       110.466034    
   72.7000046       19.6708679      -71.5606537      -51.8897858       109.934807    
   72.8000031       20.2315960      -72.1376038      -51.9060059       113.068558    
   72.9000092       20.1207981      -72.0268478      -51.9060516       112.449333    
   73.0000076       20.1887169      -72.0891724      -51.9004555       112.828918    
   73.1000137       20.6757698      -72.5579681      -51.8821945       115.550919    
   73.2000046       20.6304188      -72.5167084      -51.8862877       115.297462    
   73.3000031       20.8473015      -72.7199020      -51.8725967       116.509552    
   73.4000015       20.3866539      -72.2481079      -51.8614540       113.935127    
   73.5000000       20.1322193      -71.9967117      -51.8644943       112.513161    
   73.6000061       20.3243561      -72.1847763      -51.8604202       113.586967    
   73.7000046       20.5440807      -72.3948364      -51.8507614       114.814941    
   73.8000031       19.5224419      -71.3772049      -51.8547592       109.105301    
   73.9000015       20.3466358      -72.2125854      -51.8659477       113.711479    
   74.0000076       20.3447189      -72.2228241      -51.8781052       113.700768    
   74.1000061       20.4306812      -72.3092880      -51.8786087       114.181183    
   74.2000046       20.3871670      -72.2369003      -51.8497276       113.937996    
   74.3000031       19.7925510      -71.6554642      -51.8629150       110.614861    
   74.4000092       20.1678371      -72.0363846      -51.8685455       112.712227    
   74.5000076       19.9207973      -71.7994308      -51.8786354       111.331589    
   74.6000061       20.6023750      -72.4820709      -51.8796959       115.140732    
   74.7000046       19.8748512      -71.7534943      -51.8786392       111.074814    
   74.8000107       20.4544144      -72.3148270      -51.8604126       114.313820    
   74.9000092       20.3672619      -72.2210922      -51.8538284       113.826752    
   75.0000000       19.7352543      -71.5769348      -51.8416748       110.294647    
   75.1000061       20.2706966      -72.1356506      -51.8649559       113.287079    
   75.2000046       20.0895615      -71.9565048      -51.8669395       112.274765    
   75.3000107       19.9053593      -71.7540512      -51.8486938       111.245308    
   75.4000015       20.3196316      -72.2098999      -51.8902664       113.560562    
   75.5000000       19.5975552      -71.4746094      -51.8770561       109.525078    
   75.6000061       20.5349236      -72.3912354      -51.8563194       114.763763    
   75.6999969       20.6006126      -72.4711227      -51.8705139       115.130882    
   75.8000031       20.0344334      -71.9297333      -51.8953018       111.966675    
   75.9000015       20.5237179      -72.3922272      -51.8685074       114.701141    
   76.0000000       20.1166115      -71.9749374      -51.8583298       112.425941    
   76.1000137       19.7133331      -71.5741806      -51.8608475       110.172134    
   76.2000046       20.0650444      -71.9542999      -51.8892555       112.137749    
   76.3000031       20.3354340      -72.2059097      -51.8704720       113.648880    
   76.4000015       20.4815197      -72.3703003      -51.8887787       114.465302    
   76.5000000       20.2774448      -72.1383438      -51.8608971       113.324791    
   76.6000061       20.3402863      -72.1986465      -51.8583641       113.675995    
   76.7000046       19.9221115      -71.7824402      -51.8603287       111.338928    
   76.8000031       20.0819416      -71.9437866      -51.8618393       112.232178    
   76.9000015       20.3507271      -72.2110672      -51.8603439       113.734352    
   77.0000076       20.3273067      -72.1972885      -51.8699799       113.603462    
   77.1000061       20.9074383      -72.7875595      -51.8801231       116.845642    
   77.2000046       19.7167816      -71.5862350      -51.8694534       110.191406    
   77.3000031       19.9052849      -71.7539673      -51.8486862       111.244904    
   77.3999939       20.0558681      -71.9132385      -51.8573723       112.086464    
   77.5000076       20.1875553      -72.0545654      -51.8670120       112.822418    
   77.6000061       19.9426594      -71.8299332      -51.8872719       111.453773    
   77.6999969       20.4388828      -72.3195877      -51.8807030       114.227020    
   77.8000031       20.4710464      -72.3487091      -51.8776627       114.406776    
   77.8999939       20.5680904      -72.4518661      -51.8837738       114.949127    
   78.0000076       20.3089352      -72.1921921      -51.8832550       113.500778    
   78.1000061       20.5376816      -72.4255066      -51.8878212       114.779175    
   78.1999969       19.7102776      -71.5626678      -51.8523903       110.155052    
   78.3000107       19.8823395      -71.7321701      -51.8498306       111.116653    
   78.4000015       20.5354023      -72.4010086      -51.8656082       114.766434    
   78.5000000       20.3059425      -72.1704865      -51.8645401       113.484055    
   78.6000061       19.9340343      -71.7945633      -51.8605309       111.405563    
   78.6999969       19.7796803      -71.6330719      -51.8533974       110.542923    
   78.8000031       20.3356743      -72.2068787      -51.8712044       113.650215    
   78.9000015       20.0437622      -71.9094086      -51.8656464       112.018806    
   79.0000000       20.3939629      -72.2469330      -51.8529663       113.975975    
   79.0999985       20.4640179      -72.3412781      -51.8772583       114.367493    
   79.2000046       21.3405209      -73.2147827      -51.8742599       119.266022    
   79.3000031       20.2516232      -72.1390381      -51.8874130       113.180481    
   79.4000015       19.8378162      -71.7171555      -51.8793335       110.867836    
   79.5000000       20.2217560      -72.0950623      -51.8733101       113.013565    
   79.6000137       20.4804688      -72.3446503      -51.8641815       114.459427    
   79.7000122       20.2684708      -72.1214523      -51.8529854       113.274635    
   79.8000107       20.7087650      -72.5739365      -51.8651733       115.735313    
   79.9000015       20.0832672      -71.9763565      -51.8930855       112.239586    
   80.0000153       20.1696072      -72.0408020      -51.8711929       112.722115    
   80.1000137       20.5675526      -72.4605713      -51.8930168       114.946121    
   80.2000046       20.3908253      -72.2609482      -51.8701210       113.958435    
   80.3000107       20.8450050      -72.7323303      -51.8873215       116.496719    
   80.4000015       20.7215824      -72.5992661      -51.8776817       115.806946    
   80.5000076       20.4654999      -72.3583984      -51.8928947       114.375778    
   80.6000137       19.8402424      -71.7321091      -51.8918648       110.881393    
   80.7000046       20.9824104      -72.8870239      -51.9046135       117.264641    
   80.8000107       20.3027134      -72.1809769      -51.8782654       113.466003    
   80.9000015       20.3381157      -72.2037048      -51.8655891       113.663857    
   81.0000076       19.6998692      -71.5735474      -51.8736801       110.096886    
   81.1000137       20.5633678      -72.4441833      -51.8808136       114.922729    
   81.2000046       20.8747292      -72.7403641      -51.8656349       116.662842    
   81.3000031       19.9618874      -71.7966385      -51.8347511       111.561234    
   81.4000092       20.2166615      -72.0620422      -51.8453827       112.985092    
   81.5000076       19.8770676      -71.7645111      -51.8874474       111.087196    
   81.6000061       20.5764503      -72.4537430      -51.8772926       114.995842    
   81.7000046       21.0274048      -72.8956909      -51.8682823       117.516106    
   81.8000107       19.7859116      -71.6658096      -51.8799019       110.577751    
   81.9000092       20.2907543      -72.1762848      -51.8855286       113.399170    
   82.0000076       20.7164249      -72.6115570      -51.8951302       115.778122    
   82.1000061       20.1118641      -72.0181427      -51.9062767       112.399406    
   82.2000122       19.9143391      -71.8034134      -51.8890762       111.295502    
   82.3000107       20.2295494      -72.1140747      -51.8845253       113.057114    
   82.4000015       20.5932961      -72.4595642      -51.8662682       115.089989    
   82.5000076       20.0439205      -71.9218140      -51.8778992       112.019684    
   82.6000061       20.3280201      -72.1765594      -51.8485374       113.607445    
   82.7000046       20.2685070      -72.1230545      -51.8545494       113.274841    
   82.8000107       20.1042728      -71.9806442      -51.8763695       112.356979    
   82.9000015       20.2463799      -72.1079712      -51.8615913       113.151176    
   83.0000000       19.8649273      -71.7022018      -51.8372688       111.019348    
   83.1000137       19.6527901      -71.5194397      -51.8666534       109.833771    
   83.2000046       20.0417347      -71.9200516      -51.8783188       112.007477    
   83.3000107       19.7662849      -71.6228256      -51.8565407       110.468063    
   83.4000015       20.5689583      -72.4280243      -51.8590660       114.953972    
   83.5000000       20.5894337      -72.4526291      -51.8631935       115.068413    
   83.6000137       20.4365940      -72.2941971      -51.8576050       114.214226    
   83.7000046       19.9876823      -71.8366318      -51.8489532       111.705391    
   83.8000031       20.5818825      -72.4384689      -51.8565865       115.026207    
   83.9000015       20.3500595      -72.2046280      -51.8545685       113.730614    
   84.0000076       20.2032757      -72.0750504      -51.8717766       112.910278    
   84.1000061       20.1580124      -72.0449982      -51.8869858       112.657318    
   84.2000046       19.9881420      -71.8679657      -51.8798180       111.707954    
   84.3000031       20.5271091      -72.4059525      -51.8788490       114.720093    
   84.4000015       20.2987137      -72.1801071      -51.8813934       113.443657    
   84.5000076       19.7539387      -71.6413269      -51.8873863       110.399063    
   84.6000061       20.4418945      -72.3222427      -51.8803520       114.243851    
   84.7000046       20.2236786      -72.1095810      -51.8859062       113.024307    
   84.8000031       20.2608566      -72.1599274      -51.8990746       113.232086    
   84.9000015       20.0758038      -71.9454803      -51.8696747       112.197876    
   85.0000076       20.3355999      -72.2214508      -51.8858490       113.649803    
   85.1000061       20.1382408      -72.0580292      -51.9197845       112.546822    
   85.1999969       20.2419128      -72.1195221      -51.8776131       113.126213    
   85.3000107       20.5473614      -72.4482574      -51.9008942       114.833275    
   85.4000015       20.9581070      -72.8332291      -51.8751183       117.128815    
   85.5000000       20.7005749      -72.5984802      -51.8979111       115.689545    
   85.6000061       20.7246742      -72.6291428      -51.9044724       115.824226    
   85.6999969       20.3059177      -72.1896362      -51.8837204       113.483917    
   85.8000107       20.3311577      -72.2113266      -51.8801689       113.624969    
   85.9000015       19.7546139      -71.6210480      -51.8664360       110.402840    
   86.0000000       20.4199829      -72.2630920      -51.8431053       114.121399    
   86.1000061       20.2809620      -72.1352081      -51.8542442       113.344452    
   86.2000046       20.4863911      -72.3395767      -51.8531876       114.492538    
   86.3000031       20.2475872      -72.0860901      -51.8384972       113.157921    
   86.4000015       20.6088943      -72.4793167      -51.8704185       115.177170    
   86.5000000       20.1798134      -72.0548096      -51.8749924       112.779152    
   86.5999985       20.2643852      -72.1536179      -51.8892288       113.251808    
   86.7000046       20.2507439      -72.1009216      -51.8501778       113.175568    
   86.8000031       20.6595860      -72.5052490      -51.8456650       115.460464    
   86.9000015       20.3509884      -72.2128448      -51.8618584       113.735802    
   87.0000000       20.2301922      -72.1132889      -51.8830948       113.060707    
   87.1000061       21.2411880      -73.1298981      -51.8887100       118.710869    
   87.2000046       20.3856220      -72.2692184      -51.8835945       113.929359    
   87.3000031       20.7537117      -72.6575623      -51.9038506       115.986504    
   87.3999939       20.2383175      -72.1153030      -51.8769798       113.106125    
   87.5000076       20.7162857      -72.5963974      -51.8801155       115.777351    
   87.6000061       20.6908283      -72.5836639      -51.8928299       115.635078    
   87.6999969       20.7920361      -72.6478043      -51.8557701       116.200691    
   87.8000031       20.1708965      -72.0346985      -51.8638000       112.729324    
   87.8999939       20.5799427      -72.4600525      -51.8801117       115.015358    
   88.0000000       20.6783638      -72.5736694      -51.8953056       115.565407    
   88.1000061       20.6235085      -72.4984436      -51.8749352       115.258835    
   88.1999969       20.6416473      -72.4942856      -51.8526382       115.360214    
   88.3000031       20.5693111      -72.4472885      -51.8779793       114.955948    
   88.4000015       20.3624935      -72.2420349      -51.8795395       113.800102    
   88.5000000       19.5858116      -71.4633102      -51.8774948       109.459457    
   88.6000061       20.6889629      -72.5766602      -51.8876953       115.624641    
   88.6999969       20.4920540      -72.3771667      -51.8851128       114.524178    
   88.7999954       20.1520729      -72.0316467      -51.8795700       112.624123    
   88.9000092       20.0789223      -71.9675751      -51.8886528       112.215309    
   89.0000076       20.1023216      -71.9601212      -51.8577957       112.346085    
   89.1000061       20.5825348      -72.4641190      -51.8815804       115.029854    
   89.2000122       20.5923996      -72.4683762      -51.8759804       115.084984    
   89.3000107       20.7117844      -72.5979462      -51.8861618       115.752190    
   89.4000092       20.3945446      -72.2553329      -51.8607864       113.979233    
   89.5000076       20.4286098      -72.3000717      -51.8714600       114.169609    
   89.6000061       20.9213829      -72.7918015      -51.8704185       116.923576    
   89.7000122       20.2558441      -72.1121063      -51.8562622       113.204071    
   89.8000107       20.3736515      -72.2369690      -51.8633118       113.862465    
   89.9000092       20.7432423      -72.6253281      -51.8820877       115.927994    
   90.0000076       20.2942638      -72.1393814      -51.8451195       113.418793    
   90.1000137       19.7609749      -71.6121292      -51.8511581       110.438385    
   90.2000046       20.0044746      -71.8439636      -51.8394852       111.799240    
   90.3000107       20.5907040      -72.4353027      -51.8445969       115.075508    
   90.4000092       20.3559628      -72.2006378      -51.8446693       113.763611    
   90.5000000       19.7245979      -71.5793762      -51.8547783       110.235092    
   90.6000137       20.4630089      -72.3305664      -51.8675575       114.361847    
   90.7000046       20.6034107      -72.4988708      -51.8954582       115.146523    
   90.8000107       20.6139107      -72.5276108      -51.9136963       115.205208    
   90.9000168       20.5792007      -72.4877930      -51.9085922       115.011223    
   91.0000076       20.4452763      -72.3598862      -51.9146118       114.262749    
   91.1000137       20.5487194      -72.4400711      -51.8913498       114.840866    
   91.2000046       20.1049519      -72.0013733      -51.8964233       112.360779    
   91.3000031       20.2418880      -72.1423798      -51.9004936       113.126076    
   91.4000168       19.6902332      -71.5713730      -51.8811378       110.043037    
   91.5000076       20.0046921      -71.8969879      -51.8922958       111.800453    
   91.6000061       20.2664070      -72.1480942      -51.8816872       113.263100    
   91.7000046       20.5395451      -72.4293365      -51.8897858       114.789597    
   91.8000031       20.3516579      -72.2419205      -51.8902626       113.739548    
   91.9000092       19.8519020      -71.7375946      -51.8856926       110.946548    
   92.0000076       20.0341778      -71.9096909      -51.8755188       111.965240    
   92.1000061       20.8047485      -72.6722183      -51.8674698       116.271736    
   92.2000046       20.2355576      -72.1009369      -51.8653793       113.090698    
   92.3000107       20.8300343      -72.6999741      -51.8699455       116.413048    
   92.4000092       20.8289013      -72.7156296      -51.8867302       116.406723    
   92.5000076       20.4341946      -72.3315201      -51.8973274       114.200821    
   92.6000061       20.1904583      -72.0918655      -51.9014053       112.838654    
   92.6999969       19.7343407      -71.6195526      -51.8852119       110.289536    
   92.8000107       20.1618156      -72.0510025      -51.8891869       112.678566    
   92.9000092       20.0975723      -71.9725952      -51.8750229       112.319534    
   93.0000000       20.3557682      -72.2303162      -51.8745499       113.762520    
   93.1000137       20.4670658      -72.3126450      -51.8455772       114.384529    
   93.2000046       20.4987183      -72.3767700      -51.8780518       114.561424    
   93.3000107       20.2166653      -72.0957718      -51.8791084       112.985107    
   93.4000092       19.6081314      -71.4771194      -51.8689919       109.584190    
   93.5000000       20.3731518      -72.2380676      -51.8649178       113.859665    
   93.6000137       20.6776161      -72.5191956      -51.8415833       115.561234    
   93.7000046       19.7935982      -71.6594620      -51.8658638       110.620705    
   93.8000031       19.9734440      -71.8459015      -51.8724594       111.625824    
   93.9000092       20.0912094      -71.9803314      -51.8891220       112.283974    
   94.0000000       20.2250481      -72.1278839      -51.9028358       113.031967    
   94.1000061       20.7520733      -72.6726837      -51.9206123       115.977356    
   94.2000046       20.3629913      -72.2709427      -51.9079514       113.802879    
   94.3000031       20.5067844      -72.4070816      -51.9002953       114.606499    
   94.4000015       20.5532017      -72.4514847      -51.8982811       114.865913    
   94.5000076       20.2362595      -72.1350632      -51.8988037       113.094612    
   94.6000061       19.8581963      -71.7417908      -51.8835945       110.981735    
   94.7000046       19.6172676      -71.5185852      -51.9013176       109.635254    
   94.8000031       20.1691055      -72.0714493      -51.9023476       112.719315    
   94.9000092       20.0083199      -71.9152069      -51.9068871       111.820724    
   95.0000076       19.8063660      -71.7006073      -51.8942375       110.692070    
   95.1000061       20.3451595      -72.2287521      -51.8835907       113.703232    
   95.1999969       20.1968536      -72.0875244      -51.8906670       112.874397    
   95.3000107       19.6215172      -71.5091782      -51.8876610       109.659004    
   95.4000092       19.8669682      -71.7672882      -51.9003181       111.030762    
   95.5000000       20.1031704      -72.0146179      -51.9114456       112.350822    
   95.6000061       20.3778095      -72.2719727      -51.8941612       113.885696    
   95.6999969       20.5967598      -72.4768295      -51.8800697       115.109352    
   95.8000107       19.8481922      -71.7353058      -51.8871117       110.925819    
   95.9000092       19.7607307      -71.6711960      -51.9104652       110.437027    
   96.0000000       20.1488991      -72.0527420      -51.9038391       112.606392    
   96.1000061       20.5309258      -72.4291840      -51.8982620       114.741425    
   96.1999969       20.7415676      -72.6154861      -51.8739128       115.918640    
   96.3000031       19.7886505      -71.6889572      -51.9003105       110.593056    
   96.4000092       20.6199207      -72.5096054      -51.8896790       115.238792    
   96.5000000       20.6518402      -72.5212173      -51.8693771       115.417175    
   96.5999985       20.6477966      -72.4994202      -51.8516273       115.394577    
   96.7000046       20.0377674      -71.9152145      -51.8774452       111.985306    
   96.8000031       20.6712971      -72.5041809      -51.8328857       115.525909    
   96.9000015       19.7697506      -71.6177521      -51.8480034       110.487434    
   97.0000000       20.1186218      -71.9924316      -51.8738098       112.437172    
   97.1000061       20.7556591      -72.6295166      -51.8738594       115.997391    
   97.2000046       20.5186691      -72.3900146      -51.8713455       114.672920    
   97.3000031       20.2760811      -72.1808090      -51.9047318       113.317169    
   97.4000015       20.5694218      -72.4589996      -51.8895760       114.956558    
   97.5000000       20.4099541      -72.2721100      -51.8621597       114.065338    
   97.6000061       20.5494938      -72.4228821      -51.8733864       114.845200    
   97.6999969       19.7020378      -71.5789185      -51.8768768       110.109009    
   97.8000031       20.4444256      -72.3324280      -51.8880005       114.257996    
   97.9000015       19.9877987      -71.8849106      -51.8971138       111.706047    
   98.0000000       20.4806061      -72.3589554      -51.8783531       114.460205    
   98.1000061       20.2849274      -72.1399002      -51.8549728       113.366615    
   98.1999969       20.2442932      -72.1012802      -51.8569908       113.139519    
   98.3000031       20.2603645      -72.1178360      -51.8574753       113.229332    
   98.4000168       20.6834717      -72.5683594      -51.8848877       115.593964    
   98.5000076       20.3813992      -72.2627029      -51.8813057       113.905762    
   98.6000137       20.0182343      -71.8903503      -51.8721123       111.876137    
   98.7000046       20.4511127      -72.3268280      -51.8757172       114.295372    
   98.8000107       20.8917160      -72.7786865      -51.8869705       116.757774    
   98.9000168       21.1048260      -73.0130386      -51.9082146       117.948784    
   99.0000076       21.0263214      -72.9451599      -51.9188423       117.510048    
   99.1000061       20.0728016      -71.9647293      -51.8919258       112.181099    
   99.2000046       20.9000816      -72.7682648      -51.8681831       116.804527    
   99.3000107       20.8240852      -72.6871796      -51.8630981       116.379807    
   99.4000092       20.8238411      -72.7047501      -51.8809090       116.378441    
   99.5000076       21.0509491      -72.9460678      -51.8951149       117.647682    
   99.6000061       20.4463367      -72.3455048      -51.8991661       114.268684    
   99.7000122       20.4525032      -72.3608170      -51.9083176       114.303139    
   99.8000107       20.8793468      -72.7704163      -51.8910675       116.688644    
   99.9000092       19.5990715      -71.4724121      -51.8733406       109.533562    
